"width","height","webaudio","browser","browser_version","mobile","os","fullscreen","vsync_rate","webcam","microphone","trial_type","trial_index","time_elapsed","internal_node_id","rt","stimulus","response","task","response_type","key_press","avg_frame_time","center_x","center_y","color","text","is_congruent","duration","is_soa","correct_response","is_correct","reaction_time"
"1024","457","true","chrome","119.0.0","false","Windows 10","true","61.37","true","false","browser-check","0","988","0.0-0.0","","","","","","","","","","","","","","","","",""
"","","","","","","","","","","","html-keyboard-response","1","15932","0.0-1.0","14943","<p style=""font:bold 20pt Arial"">Welcome to Interactive Stroop Test with Stimulus Onset Asynchrony.</p>
      <p style=""margin:50px"">Press any key to begin.</p>","b","","","","","","","","","","","","","",""
"","","","","","","","","","","","html-keyboard-response","2","29843","0.0-2.0","13909","
		<div style=""width:800px"">
			<p>You will see text randomly in one of the four colors,  <span style=""color:Blue"">Blue</span> <span style=""color:Red"">Red</span> <span style=""color:Green"">Green</span> <span style=""color:Yellow"">Yellow</span>.</p>
      <p>Your task to to press a key designated to the color stimulus as soon as possible.</p>
      <p>Here is a list of the colors with associated keys.</p>
			<ul style=""list-style-type:none"">
			  <li style=""color:Blue"">Blue - key B</li><li style=""color:Red"">Red - key R</li><li style=""color:Green"">Green - key G</li><li style=""color:Yellow"">Yellow - key Y</li>
			</ul>
			<p>For example, you should press B when seeing a stimulus of color <span style=""color:Blue"">Blue</span>, even if it is presented with another word like <span style=""color:Blue"">Red</span>.</p>
			<p>Here is a tip, you can place your figures on the keys to have a better performance.</p>
			<p>For instance, left middle figure on R; left index figure on B; right index figure on G; and right middle figure on Y</p>
			<p>The experiment will start with a practice for you to become familiar with the task.</p>
			<p>Then a test will start.</p>
			</p></p>	  
			<p>Press any key to begin the practice.</p>
		</div>
      ","g","","","","","","","","","","","","","",""
"","","","","","","","","","","","html-keyboard-response","3","30345","0.0-3.0-0.0","null","<div style=""font-size:60px;"">+</div>","null","fixation","","","","","","","","","","","","",""
"","","","","","","","","","","","psychophysics","4","44153","0.0-3.0-1.0","13283","","g","practise","key","g","16.66397493734336","500","400","Green","Green","","200","","G","true",""
"","","","","","","","","","","","html-keyboard-response","5","44668","0.0-3.0-2.0","null","<p style=""font-size:60pt"">Correct</p>","null","","","","","","","","","","","","","",""
"","","","","","","","","","","","html-keyboard-response","6","45174","0.0-3.0-0.1","null","<div style=""font-size:60px;"">+</div>","null","fixation","","","","","","","","","","","","",""
"","","","","","","","","","","","psychophysics","7","47070","0.0-3.0-1.1","1355","","g","practise","key","g","16.86714634146341","500","400","Green","Yellow","","0","","G","true",""
"","","","","","","","","","","","html-keyboard-response","8","47580","0.0-3.0-2.1","null","<p style=""font-size:60pt"">Correct</p>","null","","","","","","","","","","","","","",""
"","","","","","","","","","","","html-keyboard-response","9","48099","0.0-3.0-0.2","null","<div style=""font-size:60px;"">+</div>","null","fixation","","","","","","","","","","","","",""
"","","","","","","","","","","","psychophysics","10","49598","0.0-3.0-1.2","971","","y","practise","key","y","16.661016949152543","500","400","Yellow","Blue","","0","","Y","true",""
"","","","","","","","","","","","html-keyboard-response","11","50101","0.0-3.0-2.2","null","<p style=""font-size:60pt"">Correct</p>","null","","","","","","","","","","","","","",""
"","","","","","","","","","","","html-keyboard-response","12","50603","0.0-3.0-0.3","null","<div style=""font-size:60px;"">+</div>","null","fixation","","","","","","","","","","","","",""
"","","","","","","","","","","","psychophysics","13","52135","0.0-3.0-1.3","1017","","r","practise","key","r","16.661901639344205","500","400","Red","Green","","200","","R","true",""
"","","","","","","","","","","","html-keyboard-response","14","52647","0.0-3.0-2.3","null","<p style=""font-size:60pt"">Correct</p>","null","","","","","","","","","","","","","",""
"","","","","","","","","","","","html-keyboard-response","15","53158","0.0-3.0-0.4","null","<div style=""font-size:60px;"">+</div>","null","fixation","","","","","","","","","","","","",""
"","","","","","","","","","","","psychophysics","16","54624","0.0-3.0-1.4","955","","b","practise","key","b","16.661192982456047","500","400","Blue","Red","","200","","B","true",""
"","","","","","","","","","","","html-keyboard-response","17","55129","0.0-3.0-2.4","null","<p style=""font-size:60pt"">Correct</p>","null","","","","","","","","","","","","","",""
"","","","","","","","","","","","html-keyboard-response","18","55632","0.0-3.0-0.5","null","<div style=""font-size:60px;"">+</div>","null","fixation","","","","","","","","","","","","",""
"","","","","","","","","","","","psychophysics","19","56772","0.0-3.0-1.5","624","","y","practise","key","y","16.66181578947362","500","400","Yellow","Yellow","","200","","Y","true",""
"","","","","","","","","","","","html-keyboard-response","20","57284","0.0-3.0-2.5","null","<p style=""font-size:60pt"">Correct</p>","null","","","","","","","","","","","","","",""
"","","","","","","","","","","","html-keyboard-response","21","57796","0.0-3.0-0.6","null","<div style=""font-size:60px;"">+</div>","null","fixation","","","","","","","","","","","","",""
"","","","","","","","","","","","psychophysics","22","58973","0.0-3.0-1.6","649","","g","practise","key","g","16.657175000000098","500","400","Green","Yellow","","200","","G","true",""
"","","","","","","","","","","","html-keyboard-response","23","59477","0.0-3.0-2.6","null","<p style=""font-size:60pt"">Correct</p>","null","","","","","","","","","","","","","",""
"","","","","","","","","","","","html-keyboard-response","24","59994","0.0-3.0-0.7","null","<div style=""font-size:60px;"">+</div>","null","fixation","","","","","","","","","","","","",""
"","","","","","","","","","","","psychophysics","25","61362","0.0-3.0-1.7","840","","g","practise","key","g","16.662980392156825","500","400","Green","Green","","0","","G","true",""
"","","","","","","","","","","","html-keyboard-response","26","61872","0.0-3.0-2.7","null","<p style=""font-size:60pt"">Correct</p>","null","","","","","","","","","","","","","",""
"","","","","","","","","","","","html-keyboard-response","27","62389","0.0-3.0-0.8","null","<div style=""font-size:60px;"">+</div>","null","fixation","","","","","","","","","","","","",""
"","","","","","","","","","","","psychophysics","28","63576","0.0-3.0-1.8","674","","r","practise","key","r","16.66137499999986","500","400","Red","Red","","0","","R","true",""
"","","","","","","","","","","","html-keyboard-response","29","64085","0.0-3.0-2.8","null","<p style=""font-size:60pt"">Correct</p>","null","","","","","","","","","","","","","",""
"","","","","","","","","","","","html-keyboard-response","30","64591","0.0-3.0-0.9","null","<div style=""font-size:60px;"">+</div>","null","fixation","","","","","","","","","","","","",""
"","","","","","","","","","","","psychophysics","31","65700","0.0-3.0-1.9","589","","y","practise","key","y","17.138485714285967","500","400","Yellow","Yellow","","0","","Y","true",""
"","","","","","","","","","","","html-keyboard-response","32","66214","0.0-3.0-2.9","null","<p style=""font-size:60pt"">Correct</p>","null","","","","","","","","","","","","","",""
"","","","","","","","","","","","html-keyboard-response","33","66731","0.0-3.0-0.10","null","<div style=""font-size:60px;"">+</div>","null","fixation","","","","","","","","","","","","",""
"","","","","","","","","","","","psychophysics","34","67982","0.0-3.0-1.10","715","","b","practise","key","b","16.66586363636353","500","400","Blue","Blue","","0","","B","true",""
"","","","","","","","","","","","html-keyboard-response","35","68493","0.0-3.0-2.10","null","<p style=""font-size:60pt"">Correct</p>","null","","","","","","","","","","","","","",""
"","","","","","","","","","","","html-keyboard-response","36","69005","0.0-3.0-0.11","null","<div style=""font-size:60px;"">+</div>","null","fixation","","","","","","","","","","","","",""
"","","","","","","","","","","","psychophysics","37","70621","0.0-3.0-1.11","1103","","r","practise","key","r","16.663000000000025","500","400","Red","Green","","0","","R","true",""
"","","","","","","","","","","","html-keyboard-response","38","71133","0.0-3.0-2.11","null","<p style=""font-size:60pt"">Correct</p>","null","","","","","","","","","","","","","",""
"","","","","","","","","","","","html-keyboard-response","39","71645","0.0-3.0-0.12","null","<div style=""font-size:60px;"">+</div>","null","fixation","","","","","","","","","","","","",""
"","","","","","","","","","","","psychophysics","40","72761","0.0-3.0-1.12","593","","y","practise","key","y","16.664388888889032","500","400","Yellow","Blue","","200","","Y","true",""
"","","","","","","","","","","","html-keyboard-response","41","73268","0.0-3.0-2.12","null","<p style=""font-size:60pt"">Correct</p>","null","","","","","","","","","","","","","",""
"","","","","","","","","","","","html-keyboard-response","42","73771","0.0-3.0-0.13","null","<div style=""font-size:60px;"">+</div>","null","fixation","","","","","","","","","","","","",""
"","","","","","","","","","","","psychophysics","43","75722","0.0-3.0-1.13","1439","","b","practise","key","b","16.662337209302276","500","400","Blue","Red","","0","","B","true",""
"","","","","","","","","","","","html-keyboard-response","44","76225","0.0-3.0-2.13","null","<p style=""font-size:60pt"">Correct</p>","null","","","","","","","","","","","","","",""
"","","","","","","","","","","","html-keyboard-response","45","76732","0.0-3.0-0.14","null","<div style=""font-size:60px;"">+</div>","null","fixation","","","","","","","","","","","","",""
"","","","","","","","","","","","psychophysics","46","78262","0.0-3.0-1.14","995","","b","practise","key","b","16.663508196721345","500","400","Blue","Blue","","200","","B","true",""
"","","","","","","","","","","","html-keyboard-response","47","78768","0.0-3.0-2.14","null","<p style=""font-size:60pt"">Correct</p>","null","","","","","","","","","","","","","",""
"","","","","","","","","","","","html-keyboard-response","48","79280","0.0-3.0-0.15","null","<div style=""font-size:60px;"">+</div>","null","fixation","","","","","","","","","","","","",""
"","","","","","","","","","","","psychophysics","49","80493","0.0-3.0-1.15","696","","r","practise","key","r","16.661452380952444","500","400","Red","Red","","200","","R","true",""
"","","","","","","","","","","","html-keyboard-response","50","80998","0.0-3.0-2.15","null","<p style=""font-size:60pt"">Correct</p>","null","","","","","","","","","","","","","",""
"","","","","","","","","","","","html-keyboard-response","51","84130","0.0-4.0","3130","
  	<div style=""width:800px"">
  		<p>The test will start. Remember to press the key according to the color rather than the word.</p>
  		<p>Press any key to begin.</p>
  	</div>
  	","g","","","","","","","","","","","","","",""
"","","","","","","","","","","","html-keyboard-response","52","84634","0.0-5.0-0.0","null","<div style=""font-size:60px;"">+</div>","null","fixation","","","","","","","","","","","","",""
"","","","","","","","","","","","psychophysics","53","86546","0.0-5.0-1.0","1406","","b","response","key","b","16.664270588235162","500","400","Blue","Blue","true","200","true","B","true","1206"
"","","","","","","","","","","","html-keyboard-response","54","87057","0.0-5.0-2.0","null","<p style=""font-size:60pt"">Correct</p>","null","","","","","","","","","","","","","",""
"","","","","","","","","","","","html-keyboard-response","55","87568","0.0-5.0-0.1","null","<div style=""font-size:60px;"">+</div>","null","fixation","","","","","","","","","","","","",""
"","","","","","","","","","","","psychophysics","56","88752","0.0-5.0-1.1","669","","r","response","key","r","16.666025000000083","500","400","Red","Green","false","200","true","R","true","469"
"","","","","","","","","","","","html-keyboard-response","57","89258","0.0-5.0-2.1","null","<p style=""font-size:60pt"">Correct</p>","null","","","","","","","","","","","","","",""
"","","","","","","","","","","","html-keyboard-response","58","89768","0.0-5.0-0.2","null","<div style=""font-size:60px;"">+</div>","null","fixation","","","","","","","","","","","","",""
"","","","","","","","","","","","psychophysics","59","90925","0.0-5.0-1.2","628","","r","response","key","r","16.661333333333367","500","400","Red","Red","true","0","false","R","true","628"
"","","","","","","","","","","","html-keyboard-response","60","91432","0.0-5.0-2.2","null","<p style=""font-size:60pt"">Correct</p>","null","","","","","","","","","","","","","",""
"","","","","","","","","","","","html-keyboard-response","61","91948","0.0-5.0-0.3","null","<div style=""font-size:60px;"">+</div>","null","fixation","","","","","","","","","","","","",""
"","","","","","","","","","","","psychophysics","62","93177","0.0-5.0-1.3","708","","g","response","key","g","16.662813953488463","500","400","Green","Green","true","200","true","G","true","508"
"","","","","","","","","","","","html-keyboard-response","63","93689","0.0-5.0-2.3","null","<p style=""font-size:60pt"">Correct</p>","null","","","","","","","","","","","","","",""
"","","","","","","","","","","","html-keyboard-response","64","94202","0.0-5.0-0.4","null","<div style=""font-size:60px;"">+</div>","null","fixation","","","","","","","","","","","","",""
"","","","","","","","","","","","psychophysics","65","95355","0.0-5.0-1.4","635","","b","response","key","b","16.656894736842094","500","400","Red","Blue","false","0","false","R","false","635"
"","","","","","","","","","","","html-keyboard-response","66","95861","0.0-5.0-2.4","null","<p style=""font-size:60pt"">Wrong</p>","null","","","","","","","","","","","","","",""
"","","","","","","","","","","","html-keyboard-response","67","96365","0.0-5.0-0.5","null","<div style=""font-size:60px;"">+</div>","null","fixation","","","","","","","","","","","","",""
"","","","","","","","","","","","psychophysics","68","97616","0.0-5.0-1.5","734","","r","response","key","r","16.65568181818162","500","400","Red","Yellow","false","0","false","R","true","734"
"","","","","","","","","","","","html-keyboard-response","69","98120","0.0-5.0-2.5","null","<p style=""font-size:60pt"">Correct</p>","null","","","","","","","","","","","","","",""
"","","","","","","","","","","","html-keyboard-response","70","98624","0.0-5.0-0.6","null","<div style=""font-size:60px;"">+</div>","null","fixation","","","","","","","","","","","","",""
"","","","","","","","","","","","psychophysics","71","99755","0.0-5.0-1.6","595","","y","response","key","y","17.125194444444382","500","400","Yellow","Yellow","true","0","false","Y","true","595"
"","","","","","","","","","","","html-keyboard-response","72","100264","0.0-5.0-2.6","null","<p style=""font-size:60pt"">Correct</p>","null","","","","","","","","","","","","","",""
"","","","","","","","","","","","html-keyboard-response","73","100767","0.0-5.0-0.7","null","<div style=""font-size:60px;"">+</div>","null","fixation","","","","","","","","","","","","",""
"","","","","","","","","","","","psychophysics","74","101939","0.0-5.0-1.7","654","","y","response","key","y","16.665358974359176","500","400","Yellow","Red","false","200","true","Y","true","454"
"","","","","","","","","","","","html-keyboard-response","75","102449","0.0-5.0-2.7","null","<p style=""font-size:60pt"">Correct</p>","null","","","","","","","","","","","","","",""
"","","","","","","","","","","","html-keyboard-response","76","102965","0.0-5.0-0.8","null","<div style=""font-size:60px;"">+</div>","null","fixation","","","","","","","","","","","","",""
"","","","","","","","","","","","psychophysics","77","104156","0.0-5.0-1.8","675","","y","response","key","y","16.66426829268294","500","400","Yellow","Red","false","0","false","Y","true","675"
"","","","","","","","","","","","html-keyboard-response","78","104661","0.0-5.0-2.8","null","<p style=""font-size:60pt"">Correct</p>","null","","","","","","","","","","","","","",""
"","","","","","","","","","","","html-keyboard-response","79","105175","0.0-5.0-0.9","null","<div style=""font-size:60px;"">+</div>","null","fixation","","","","","","","","","","","","",""
"","","","","","","","","","","","psychophysics","80","106126","0.0-5.0-1.9","438","","r","response","key","r","16.66433333333353","500","400","Red","Blue","false","0","false","R","true","438"
"","","","","","","","","","","","html-keyboard-response","81","106632","0.0-5.0-2.9","null","<p style=""font-size:60pt"">Correct</p>","null","","","","","","","","","","","","","",""
"","","","","","","","","","","","html-keyboard-response","82","107138","0.0-5.0-0.10","null","<div style=""font-size:60px;"">+</div>","null","fixation","","","","","","","","","","","","",""
"","","","","","","","","","","","psychophysics","83","108614","0.0-5.0-1.10","938","","g","response","key","g","16.662280701754387","500","400","Green","Yellow","false","200","true","G","true","738"
"","","","","","","","","","","","html-keyboard-response","84","109122","0.0-5.0-2.10","null","<p style=""font-size:60pt"">Correct</p>","null","","","","","","","","","","","","","",""
"","","","","","","","","","","","html-keyboard-response","85","109625","0.0-5.0-0.11","null","<div style=""font-size:60px;"">+</div>","null","fixation","","","","","","","","","","","","",""
"","","","","","","","","","","","psychophysics","86","110732","0.0-5.0-1.11","588","","g","response","key","g","16.661200000000203","500","400","Green","Green","true","0","false","G","true","588"
"","","","","","","","","","","","html-keyboard-response","87","111249","0.0-5.0-2.11","null","<p style=""font-size:60pt"">Correct</p>","null","","","","","","","","","","","","","",""
"","","","","","","","","","","","html-keyboard-response","88","111765","0.0-5.0-0.12","null","<div style=""font-size:60px;"">+</div>","null","fixation","","","","","","","","","","","","",""
"","","","","","","","","","","","psychophysics","89","112870","0.0-5.0-1.12","586","","r","response","key","r","16.653714285714003","500","400","Red","Blue","false","0","false","R","true","586"
"","","","","","","","","","","","html-keyboard-response","90","113381","0.0-5.0-2.12","null","<p style=""font-size:60pt"">Correct</p>","null","","","","","","","","","","","","","",""
"","","","","","","","","","","","html-keyboard-response","91","113889","0.0-5.0-0.13","null","<div style=""font-size:60px;"">+</div>","null","fixation","","","","","","","","","","","","",""
"","","","","","","","","","","","psychophysics","92","115088","0.0-5.0-1.13","681","","b","response","key","b","16.66414634146367","500","400","Blue","Blue","true","200","true","B","true","481"
"","","","","","","","","","","","html-keyboard-response","93","115601","0.0-5.0-2.13","null","<p style=""font-size:60pt"">Correct</p>","null","","","","","","","","","","","","","",""
"","","","","","","","","","","","html-keyboard-response","94","116104","0.0-5.0-0.14","null","<div style=""font-size:60px;"">+</div>","null","fixation","","","","","","","","","","","","",""
"","","","","","","","","","","","psychophysics","95","117256","0.0-5.0-1.14","617","","y","response","key","y","16.66559459459441","500","400","Yellow","Blue","false","0","false","Y","true","617"
"","","","","","","","","","","","html-keyboard-response","96","117772","0.0-5.0-2.14","null","<p style=""font-size:60pt"">Correct</p>","null","","","","","","","","","","","","","",""
"","","","","","","","","","","","html-keyboard-response","97","118281","0.0-5.0-0.15","null","<div style=""font-size:60px;"">+</div>","null","fixation","","","","","","","","","","","","",""
"","","","","","","","","","","","psychophysics","98","119422","0.0-5.0-1.15","627","","r","response","key","r","16.66318421052634","500","400","Red","Yellow","false","200","true","R","true","427"
"","","","","","","","","","","","html-keyboard-response","99","119937","0.0-5.0-2.15","null","<p style=""font-size:60pt"">Correct</p>","null","","","","","","","","","","","","","",""
"","","","","","","","","","","","html-keyboard-response","100","120440","0.0-5.0-0.16","null","<div style=""font-size:60px;"">+</div>","null","fixation","","","","","","","","","","","","",""
"","","","","","","","","","","","psychophysics","101","121945","0.0-5.0-1.16","989","","b","response","key","b","16.660169491525373","500","400","Blue","Green","false","200","true","B","true","789"
"","","","","","","","","","","","html-keyboard-response","102","122448","0.0-5.0-2.16","null","<p style=""font-size:60pt"">Correct</p>","null","","","","","","","","","","","","","",""
"","","","","","","","","","","","html-keyboard-response","103","122958","0.0-5.0-0.17","null","<div style=""font-size:60px;"">+</div>","null","fixation","","","","","","","","","","","","",""
"","","","","","","","","","","","psychophysics","104","123976","0.0-5.0-1.17","501","","b","response","key","b","16.661633333332915","500","400","Blue","Blue","true","0","false","B","true","501"
"","","","","","","","","","","","html-keyboard-response","105","124492","0.0-5.0-2.17","null","<p style=""font-size:60pt"">Correct</p>","null","","","","","","","","","","","","","",""
"","","","","","","","","","","","html-keyboard-response","106","125000","0.0-5.0-0.18","null","<div style=""font-size:60px;"">+</div>","null","fixation","","","","","","","","","","","","",""
"","","","","","","","","","","","psychophysics","107","126261","0.0-5.0-1.18","710","","g","response","key","g","16.664883720930153","500","400","Green","Green","true","200","true","G","true","510"
"","","","","","","","","","","","html-keyboard-response","108","126770","0.0-5.0-2.18","null","<p style=""font-size:60pt"">Correct</p>","null","","","","","","","","","","","","","",""
"","","","","","","","","","","","html-keyboard-response","109","127284","0.0-5.0-0.19","null","<div style=""font-size:60px;"">+</div>","null","fixation","","","","","","","","","","","","",""
"","","","","","","","","","","","psychophysics","110","128496","0.0-5.0-1.19","699","","g","response","key","g","16.662428571428574","500","400","Green","Green","true","200","true","G","true","499"
"","","","","","","","","","","","html-keyboard-response","111","128999","0.0-5.0-2.19","null","<p style=""font-size:60pt"">Correct</p>","null","","","","","","","","","","","","","",""
"","","","","","","","","","","","html-keyboard-response","112","129515","0.0-5.0-0.20","null","<div style=""font-size:60px;"">+</div>","null","fixation","","","","","","","","","","","","",""
"","","","","","","","","","","","psychophysics","113","130659","0.0-5.0-1.20","635","","r","response","key","r","16.661552631579596","500","400","Red","Red","true","200","true","R","true","435"
"","","","","","","","","","","","html-keyboard-response","114","131168","0.0-5.0-2.20","null","<p style=""font-size:60pt"">Correct</p>","null","","","","","","","","","","","","","",""
"","","","","","","","","","","","html-keyboard-response","115","131681","0.0-5.0-0.21","null","<div style=""font-size:60px;"">+</div>","null","fixation","","","","","","","","","","","","",""
"","","","","","","","","","","","psychophysics","116","132757","0.0-5.0-1.21","570","","y","response","key","y","16.66202941176444","500","400","Yellow","Yellow","true","0","false","Y","true","570"
"","","","","","","","","","","","html-keyboard-response","117","133269","0.0-5.0-2.21","null","<p style=""font-size:60pt"">Correct</p>","null","","","","","","","","","","","","","",""
"","","","","","","","","","","","html-keyboard-response","118","133773","0.0-5.0-0.22","null","<div style=""font-size:60px;"">+</div>","null","fixation","","","","","","","","","","","","",""
"","","","","","","","","","","","psychophysics","119","135001","0.0-5.0-1.22","696","","b","response","key","b","16.662674418604542","500","400","Blue","Blue","true","0","false","B","true","696"
"","","","","","","","","","","","html-keyboard-response","120","135506","0.0-5.0-2.22","null","<p style=""font-size:60pt"">Correct</p>","null","","","","","","","","","","","","","",""
"","","","","","","","","","","","html-keyboard-response","121","136019","0.0-5.0-0.23","null","<div style=""font-size:60px;"">+</div>","null","fixation","","","","","","","","","","","","",""
"","","","","","","","","","","","psychophysics","122","137093","0.0-5.0-1.23","561","","y","response","key","y","17.158909090909276","500","400","Yellow","Yellow","true","0","false","Y","true","561"
"","","","","","","","","","","","html-keyboard-response","123","137598","0.0-5.0-2.23","null","<p style=""font-size:60pt"">Correct</p>","null","","","","","","","","","","","","","",""
"","","","","","","","","","","","html-keyboard-response","124","138102","0.0-5.0-0.24","null","<div style=""font-size:60px;"">+</div>","null","fixation","","","","","","","","","","","","",""
"","","","","","","","","","","","psychophysics","125","139336","0.0-5.0-1.24","716","","r","response","key","r","16.665116279069903","500","400","Red","Red","true","200","true","R","true","516"
"","","","","","","","","","","","html-keyboard-response","126","139850","0.0-5.0-2.24","null","<p style=""font-size:60pt"">Correct</p>","null","","","","","","","","","","","","","",""
"","","","","","","","","","","","html-keyboard-response","127","140359","0.0-5.0-0.25","null","<div style=""font-size:60px;"">+</div>","null","fixation","","","","","","","","","","","","",""
"","","","","","","","","","","","psychophysics","128","141602","0.0-5.0-1.25","718","","r","response","key","r","16.66163636363622","500","400","Red","Red","true","200","true","R","true","518"
"","","","","","","","","","","","html-keyboard-response","129","142105","0.0-5.0-2.25","null","<p style=""font-size:60pt"">Correct</p>","null","","","","","","","","","","","","","",""
"","","","","","","","","","","","html-keyboard-response","130","142610","0.0-5.0-0.26","null","<div style=""font-size:60px;"">+</div>","null","fixation","","","","","","","","","","","","",""
"","","","","","","","","","","","psychophysics","131","143569","0.0-5.0-1.26","438","","r","response","key","r","16.667074074074023","500","400","Red","Red","true","0","false","R","true","438"
"","","","","","","","","","","","html-keyboard-response","132","144073","0.0-5.0-2.26","null","<p style=""font-size:60pt"">Correct</p>","null","","","","","","","","","","","","","",""
"","","","","","","","","","","","html-keyboard-response","133","144577","0.0-5.0-0.27","null","<div style=""font-size:60px;"">+</div>","null","fixation","","","","","","","","","","","","",""
"","","","","","","","","","","","psychophysics","134","145823","0.0-5.0-1.27","735","","b","response","key","b","16.66545454545452","500","400","Blue","Yellow","false","0","false","B","true","735"
"","","","","","","","","","","","html-keyboard-response","135","146337","0.0-5.0-2.27","null","<p style=""font-size:60pt"">Correct</p>","null","","","","","","","","","","","","","",""
"","","","","","","","","","","","html-keyboard-response","136","146849","0.0-5.0-0.28","null","<div style=""font-size:60px;"">+</div>","null","fixation","","","","","","","","","","","","",""
"","","","","","","","","","","","psychophysics","137","147990","0.0-5.0-1.28","630","","y","response","key","y","16.663078947368806","500","400","Yellow","Blue","false","0","false","Y","true","630"
"","","","","","","","","","","","html-keyboard-response","138","148497","0.0-5.0-2.28","null","<p style=""font-size:60pt"">Correct</p>","null","","","","","","","","","","","","","",""
"","","","","","","","","","","","html-keyboard-response","139","149012","0.0-5.0-0.29","null","<div style=""font-size:60px;"">+</div>","null","fixation","","","","","","","","","","","","",""
"","","","","","","","","","","","psychophysics","140","150315","0.0-5.0-1.29","788","","b","response","key","b","16.662208333333183","500","400","Blue","Yellow","false","0","false","B","true","788"
"","","","","","","","","","","","html-keyboard-response","141","150825","0.0-5.0-2.29","null","<p style=""font-size:60pt"">Correct</p>","null","","","","","","","","","","","","","",""
"","","","","","","","","","","","html-keyboard-response","142","151337","0.0-5.0-0.30","null","<div style=""font-size:60px;"">+</div>","null","fixation","","","","","","","","","","","","",""
"","","","","","","","","","","","psychophysics","143","152473","0.0-5.0-1.30","604","","r","response","key","r","16.663405405405463","500","400","Red","Red","true","200","true","R","true","404"
"","","","","","","","","","","","html-keyboard-response","144","152979","0.0-5.0-2.30","null","<p style=""font-size:60pt"">Correct</p>","null","","","","","","","","","","","","","",""
"","","","","","","","","","","","html-keyboard-response","145","153484","0.0-5.0-0.31","null","<div style=""font-size:60px;"">+</div>","null","fixation","","","","","","","","","","","","",""
"","","","","","","","","","","","psychophysics","146","154688","0.0-5.0-1.31","692","","y","response","key","y","16.6626904761901","500","400","Blue","Yellow","false","0","false","B","false","692"
"","","","","","","","","","","","html-keyboard-response","147","155200","0.0-5.0-2.31","null","<p style=""font-size:60pt"">Wrong</p>","null","","","","","","","","","","","","","",""
"","","","","","","","","","","","html-keyboard-response","148","155714","0.0-5.0-0.32","null","<div style=""font-size:60px;"">+</div>","null","fixation","","","","","","","","","","","","",""
"","","","","","","","","","","","psychophysics","149","156975","0.0-5.0-1.32","751","","r","response","key","r","16.663066666666417","500","400","Red","Red","true","0","false","R","true","751"
"","","","","","","","","","","","html-keyboard-response","150","157480","0.0-5.0-2.32","null","<p style=""font-size:60pt"">Correct</p>","null","","","","","","","","","","","","","",""
"","","","","","","","","","","","html-keyboard-response","151","157989","0.0-5.0-0.33","null","<div style=""font-size:60px;"">+</div>","null","fixation","","","","","","","","","","","","",""
"","","","","","","","","","","","psychophysics","152","159220","0.0-5.0-1.33","720","","b","response","key","b","16.664906976744533","500","400","Blue","Yellow","false","0","false","B","true","720"
"","","","","","","","","","","","html-keyboard-response","153","159724","0.0-5.0-2.33","null","<p style=""font-size:60pt"">Correct</p>","null","","","","","","","","","","","","","",""
"","","","","","","","","","","","html-keyboard-response","154","160228","0.0-5.0-0.34","null","<div style=""font-size:60px;"">+</div>","null","fixation","","","","","","","","","","","","",""
"","","","","","","","","","","","psychophysics","155","161451","0.0-5.0-1.34","689","","r","response","key","r","17.05892857142871","500","400","Red","Red","true","200","true","R","true","489"
"","","","","","","","","","","","html-keyboard-response","156","161961","0.0-5.0-2.34","null","<p style=""font-size:60pt"">Correct</p>","null","","","","","","","","","","","","","",""
"","","","","","","","","","","","html-keyboard-response","157","162465","0.0-5.0-0.35","null","<div style=""font-size:60px;"">+</div>","null","fixation","","","","","","","","","","","","",""
"","","","","","","","","","","","psychophysics","158","163421","0.0-5.0-1.35","442","","r","response","key","r","17.304961538461683","500","400","Red","Red","true","200","true","R","true","242"
"","","","","","","","","","","","html-keyboard-response","159","163933","0.0-5.0-2.35","null","<p style=""font-size:60pt"">Correct</p>","null","","","","","","","","","","","","","",""
"","","","","","","","","","","","html-keyboard-response","160","164441","0.0-5.0-0.36","null","<div style=""font-size:60px;"">+</div>","null","fixation","","","","","","","","","","","","",""
"","","","","","","","","","","","psychophysics","161","165566","0.0-5.0-1.36","606","","y","response","key","y","16.66116216216186","500","400","Yellow","Blue","false","200","true","Y","true","406"
"","","","","","","","","","","","html-keyboard-response","162","166081","0.0-5.0-2.36","null","<p style=""font-size:60pt"">Correct</p>","null","","","","","","","","","","","","","",""
"","","","","","","","","","","","html-keyboard-response","163","166584","0.0-5.0-0.37","null","<div style=""font-size:60px;"">+</div>","null","fixation","","","","","","","","","","","","",""
"","","","","","","","","","","","psychophysics","164","167674","0.0-5.0-1.37","574","","r","response","key","r","16.66049999999985","500","400","Red","Green","false","200","true","R","true","374"
"","","","","","","","","","","","html-keyboard-response","165","168184","0.0-5.0-2.37","null","<p style=""font-size:60pt"">Correct</p>","null","","","","","","","","","","","","","",""
"","","","","","","","","","","","html-keyboard-response","166","168689","0.0-5.0-0.38","null","<div style=""font-size:60px;"">+</div>","null","fixation","","","","","","","","","","","","",""
"","","","","","","","","","","","psychophysics","167","170003","0.0-5.0-1.38","784","","y","response","key","y","17.016212765957807","500","400","Yellow","Yellow","true","200","true","Y","true","584"
"","","","","","","","","","","","html-keyboard-response","168","170504","0.0-5.0-2.38","null","<p style=""font-size:60pt"">Correct</p>","null","","","","","","","","","","","","","",""
"","","","","","","","","","","","html-keyboard-response","169","171019","0.0-5.0-0.39","null","<div style=""font-size:60px;"">+</div>","null","fixation","","","","","","","","","","","","",""
"","","","","","","","","","","","psychophysics","170","172479","0.0-5.0-1.39","949","","b","response","key","b","16.66184210526275","500","400","Blue","Yellow","false","200","true","B","true","749"
"","","","","","","","","","","","html-keyboard-response","171","172988","0.0-5.0-2.39","null","<p style=""font-size:60pt"">Correct</p>","null","","","","","","","","","","","","","",""
"","","","","","","","","","","","html-keyboard-response","172","173494","0.0-5.0-0.40","null","<div style=""font-size:60px;"">+</div>","null","fixation","","","","","","","","","","","","",""
"","","","","","","","","","","","psychophysics","173","174598","0.0-5.0-1.40","592","","y","response","key","y","16.66252777777845","500","400","Yellow","Yellow","true","200","true","Y","true","392"
"","","","","","","","","","","","html-keyboard-response","174","175111","0.0-5.0-2.40","null","<p style=""font-size:60pt"">Correct</p>","null","","","","","","","","","","","","","",""
"","","","","","","","","","","","html-keyboard-response","175","175612","0.0-5.0-0.41","null","<div style=""font-size:60px;"">+</div>","null","fixation","","","","","","","","","","","","",""
"","","","","","","","","","","","psychophysics","176","176800","0.0-5.0-1.41","682","","y","response","key","y","16.661268292683484","500","400","Yellow","Blue","false","200","true","Y","true","482"
"","","","","","","","","","","","html-keyboard-response","177","177307","0.0-5.0-2.41","null","<p style=""font-size:60pt"">Correct</p>","null","","","","","","","","","","","","","",""
"","","","","","","","","","","","html-keyboard-response","178","177814","0.0-5.0-0.42","null","<div style=""font-size:60px;"">+</div>","null","fixation","","","","","","","","","","","","",""
"","","","","","","","","","","","psychophysics","179","179001","0.0-5.0-1.42","658","","r","response","key","r","16.659600000000502","500","400","Blue","Blue","true","200","true","B","false","458"
"","","","","","","","","","","","html-keyboard-response","180","179506","0.0-5.0-2.42","null","<p style=""font-size:60pt"">Wrong</p>","null","","","","","","","","","","","","","",""
"","","","","","","","","","","","html-keyboard-response","181","180010","0.0-5.0-0.43","null","<div style=""font-size:60px;"">+</div>","null","fixation","","","","","","","","","","","","",""
"","","","","","","","","","","","psychophysics","182","181445","0.0-5.0-1.43","907","","r","response","key","r","16.66398181818182","500","400","Red","Green","false","200","true","R","true","707"
"","","","","","","","","","","","html-keyboard-response","183","181949","0.0-5.0-2.43","null","<p style=""font-size:60pt"">Correct</p>","null","","","","","","","","","","","","","",""
"","","","","","","","","","","","html-keyboard-response","184","182454","0.0-5.0-0.44","null","<div style=""font-size:60px;"">+</div>","null","fixation","","","","","","","","","","","","",""
"","","","","","","","","","","","psychophysics","185","183551","0.0-5.0-1.44","577","","r","response","key","r","16.66339999999951","500","400","Red","Red","true","0","false","R","true","577"
"","","","","","","","","","","","html-keyboard-response","186","184062","0.0-5.0-2.44","null","<p style=""font-size:60pt"">Correct</p>","null","","","","","","","","","","","","","",""
"","","","","","","","","","","","html-keyboard-response","187","184568","0.0-5.0-0.45","null","<div style=""font-size:60px;"">+</div>","null","fixation","","","","","","","","","","","","",""
"","","","","","","","","","","","psychophysics","188","185688","0.0-5.0-1.45","610","","y","response","key","y","16.66433333333407","500","400","Yellow","Yellow","true","200","true","Y","true","410"
"","","","","","","","","","","","html-keyboard-response","189","186196","0.0-5.0-2.45","null","<p style=""font-size:60pt"">Correct</p>","null","","","","","","","","","","","","","",""
"","","","","","","","","","","","html-keyboard-response","190","186706","0.0-5.0-0.46","null","<div style=""font-size:60px;"">+</div>","null","fixation","","","","","","","","","","","","",""
"","","","","","","","","","","","psychophysics","191","187887","0.0-5.0-1.46","654","","y","response","key","y","17.088538461538683","500","400","Red","Red","true","0","false","R","false","654"
"","","","","","","","","","","","html-keyboard-response","192","188029","0.0-5.0-2.46","141","<p style=""font-size:60pt"">Wrong</p>","r","","","","","","","","","","","","","",""
"","","","","","","","","","","","html-keyboard-response","193","188538","0.0-5.0-0.47","null","<div style=""font-size:60px;"">+</div>","null","fixation","","","","","","","","","","","","",""
"","","","","","","","","","","","psychophysics","194","189912","0.0-5.0-1.47","868","","y","response","key","y","16.660403846153574","500","400","Yellow","Green","false","200","true","Y","true","668"
"","","","","","","","","","","","html-keyboard-response","195","190418","0.0-5.0-2.47","null","<p style=""font-size:60pt"">Correct</p>","null","","","","","","","","","","","","","",""
"","","","","","","","","","","","html-keyboard-response","196","190933","0.0-5.0-0.48","null","<div style=""font-size:60px;"">+</div>","null","fixation","","","","","","","","","","","","",""
"","","","","","","","","","","","psychophysics","197","192073","0.0-5.0-1.48","624","","g","response","key","g","16.663736842105497","500","400","Green","Yellow","false","0","false","G","true","624"
"","","","","","","","","","","","html-keyboard-response","198","192575","0.0-5.0-2.48","null","<p style=""font-size:60pt"">Correct</p>","null","","","","","","","","","","","","","",""
"","","","","","","","","","","","html-keyboard-response","199","193078","0.0-5.0-0.49","null","<div style=""font-size:60px;"">+</div>","null","fixation","","","","","","","","","","","","",""
"","","","","","","","","","","","psychophysics","200","194181","0.0-5.0-1.49","588","","b","response","key","b","17.138342857142977","500","400","Blue","Yellow","false","0","false","B","true","588"
"","","","","","","","","","","","html-keyboard-response","201","194695","0.0-5.0-2.49","null","<p style=""font-size:60pt"">Correct</p>","null","","","","","","","","","","","","","",""
"","","","","","","","","","","","html-keyboard-response","202","195204","0.0-5.0-0.50","null","<div style=""font-size:60px;"">+</div>","null","fixation","","","","","","","","","","","","",""
"","","","","","","","","","","","psychophysics","203","196316","0.0-5.0-1.50","583","","r","response","key","r","16.659194444444438","500","400","Red","Blue","false","0","false","R","true","583"
"","","","","","","","","","","","html-keyboard-response","204","196820","0.0-5.0-2.50","null","<p style=""font-size:60pt"">Correct</p>","null","","","","","","","","","","","","","",""
"","","","","","","","","","","","html-keyboard-response","205","197337","0.0-5.0-0.51","null","<div style=""font-size:60px;"">+</div>","null","fixation","","","","","","","","","","","","",""
"","","","","","","","","","","","psychophysics","206","199013","0.0-5.0-1.51","1169","","g","response","key","g","16.663428571428604","500","400","Green","Yellow","false","200","true","G","true","969"
"","","","","","","","","","","","html-keyboard-response","207","199517","0.0-5.0-2.51","null","<p style=""font-size:60pt"">Correct</p>","null","","","","","","","","","","","","","",""
"","","","","","","","","","","","html-keyboard-response","208","200023","0.0-5.0-0.52","null","<div style=""font-size:60px;"">+</div>","null","fixation","","","","","","","","","","","","",""
"","","","","","","","","","","","psychophysics","209","201261","0.0-5.0-1.52","720","","r","response","key","r","16.66093023255776","500","400","Red","Blue","false","0","false","R","true","720"
"","","","","","","","","","","","html-keyboard-response","210","201768","0.0-5.0-2.52","null","<p style=""font-size:60pt"">Correct</p>","null","","","","","","","","","","","","","",""
"","","","","","","","","","","","html-keyboard-response","211","202272","0.0-5.0-0.53","null","<div style=""font-size:60px;"">+</div>","null","fixation","","","","","","","","","","","","",""
"","","","","","","","","","","","psychophysics","212","203387","0.0-5.0-1.53","593","","g","response","key","g","16.66141666666711","500","400","Green","Green","true","0","false","G","true","593"
"","","","","","","","","","","","html-keyboard-response","213","203899","0.0-5.0-2.53","null","<p style=""font-size:60pt"">Correct</p>","null","","","","","","","","","","","","","",""
"","","","","","","","","","","","html-keyboard-response","214","204417","0.0-5.0-0.54","null","<div style=""font-size:60px;"">+</div>","null","fixation","","","","","","","","","","","","",""
"","","","","","","","","","","","psychophysics","215","205546","0.0-5.0-1.54","609","","r","response","key","r","16.664999999999498","500","400","Blue","Blue","true","200","true","B","false","409"
"","","","","","","","","","","","html-keyboard-response","216","206060","0.0-5.0-2.54","null","<p style=""font-size:60pt"">Wrong</p>","null","","","","","","","","","","","","","",""
"","","","","","","","","","","","html-keyboard-response","217","206564","0.0-5.0-0.55","null","<div style=""font-size:60px;"">+</div>","null","fixation","","","","","","","","","","","","",""
"","","","","","","","","","","","psychophysics","218","207631","0.0-5.0-1.55","557","","r","response","key","r","16.660272727272417","500","400","Red","Red","true","0","false","R","true","557"
"","","","","","","","","","","","html-keyboard-response","219","208144","0.0-5.0-2.55","null","<p style=""font-size:60pt"">Correct</p>","null","","","","","","","","","","","","","",""
"","","","","","","","","","","","html-keyboard-response","220","208650","0.0-5.0-0.56","null","<div style=""font-size:60px;"">+</div>","null","fixation","","","","","","","","","","","","",""
"","","","","","","","","","","","psychophysics","221","209972","0.0-5.0-1.56","807","","b","response","key","b","16.66114285714302","500","400","Blue","Green","false","0","false","B","true","807"
"","","","","","","","","","","","html-keyboard-response","222","210485","0.0-5.0-2.56","null","<p style=""font-size:60pt"">Correct</p>","null","","","","","","","","","","","","","",""
"","","","","","","","","","","","html-keyboard-response","223","210995","0.0-5.0-0.57","null","<div style=""font-size:60px;"">+</div>","null","fixation","","","","","","","","","","","","",""
"","","","","","","","","","","","psychophysics","224","212456","0.0-5.0-1.57","941","","g","response","key","g","16.662982456140494","500","400","Green","Yellow","false","200","true","G","true","741"
"","","","","","","","","","","","html-keyboard-response","225","212964","0.0-5.0-2.57","null","<p style=""font-size:60pt"">Correct</p>","null","","","","","","","","","","","","","",""
"","","","","","","","","","","","html-keyboard-response","226","213469","0.0-5.0-0.58","null","<div style=""font-size:60px;"">+</div>","null","fixation","","","","","","","","","","","","",""
"","","","","","","","","","","","psychophysics","227","214732","0.0-5.0-1.58","740","","b","response","key","b","16.664222222221888","500","400","Blue","Red","false","0","false","B","true","740"
"","","","","","","","","","","","html-keyboard-response","228","215246","0.0-5.0-2.58","null","<p style=""font-size:60pt"">Correct</p>","null","","","","","","","","","","","","","",""
"","","","","","","","","","","","html-keyboard-response","229","215764","0.0-5.0-0.59","null","<div style=""font-size:60px;"">+</div>","null","fixation","","","","","","","","","","","","",""
"","","","","","","","","","","","psychophysics","230","216929","0.0-5.0-1.59","649","","y","response","key","y","16.661461538461317","500","400","Yellow","Green","false","200","true","Y","true","449"
"","","","","","","","","","","","html-keyboard-response","231","217443","0.0-5.0-2.59","null","<p style=""font-size:60pt"">Correct</p>","null","","","","","","","","","","","","","",""
"","","","","","","","","","","","html-keyboard-response","232","217955","0.0-5.0-0.60","null","<div style=""font-size:60px;"">+</div>","null","fixation","","","","","","","","","","","","",""
"","","","","","","","","","","","psychophysics","233","219061","0.0-5.0-1.60","598","","r","response","key","r","16.663861111111245","500","400","Red","Red","true","0","false","R","true","598"
"","","","","","","","","","","","html-keyboard-response","234","219567","0.0-5.0-2.60","null","<p style=""font-size:60pt"">Correct</p>","null","","","","","","","","","","","","","",""
"","","","","","","","","","","","html-keyboard-response","235","220072","0.0-5.0-0.61","null","<div style=""font-size:60px;"">+</div>","null","fixation","","","","","","","","","","","","",""
"","","","","","","","","","","","psychophysics","236","221188","0.0-5.0-1.61","605","","b","response","key","b","16.661405405405645","500","400","Blue","Blue","true","0","false","B","true","605"
"","","","","","","","","","","","html-keyboard-response","237","221692","0.0-5.0-2.61","null","<p style=""font-size:60pt"">Correct</p>","null","","","","","","","","","","","","","",""
"","","","","","","","","","","","html-keyboard-response","238","222196","0.0-5.0-0.62","null","<div style=""font-size:60px;"">+</div>","null","fixation","","","","","","","","","","","","",""
"","","","","","","","","","","","psychophysics","239","223621","0.0-5.0-1.62","897","","g","response","key","g","16.657981818182055","500","400","Green","Red","false","0","false","G","true","897"
"","","","","","","","","","","","html-keyboard-response","240","224136","0.0-5.0-2.62","null","<p style=""font-size:60pt"">Correct</p>","null","","","","","","","","","","","","","",""
"","","","","","","","","","","","html-keyboard-response","241","224649","0.0-5.0-0.63","null","<div style=""font-size:60px;"">+</div>","null","fixation","","","","","","","","","","","","",""
"","","","","","","","","","","","psychophysics","242","225953","0.0-5.0-1.63","780","","y","response","key","y","16.664659574468114","500","400","Yellow","Yellow","true","200","true","Y","true","580"
"","","","","","","","","","","","html-keyboard-response","243","226455","0.0-5.0-2.63","null","<p style=""font-size:60pt"">Correct</p>","null","","","","","","","","","","","","","",""
"","","","","","","","","","","","html-keyboard-response","244","226958","0.0-5.0-0.64","null","<div style=""font-size:60px;"">+</div>","null","fixation","","","","","","","","","","","","",""
"","","","","","","","","","","","psychophysics","245","228152","0.0-5.0-1.64","682","","g","response","key","g","16.667585365853284","500","400","Green","Green","true","0","false","G","true","682"
"","","","","","","","","","","","html-keyboard-response","246","228657","0.0-5.0-2.64","null","<p style=""font-size:60pt"">Correct</p>","null","","","","","","","","","","","","","",""
"","","","","","","","","","","","html-keyboard-response","247","229162","0.0-5.0-0.65","null","<div style=""font-size:60px;"">+</div>","null","fixation","","","","","","","","","","","","",""
"","","","","","","","","","","","psychophysics","248","230290","0.0-5.0-1.65","619","","b","response","key","b","16.6659189189188","500","400","Blue","Blue","true","0","false","B","true","619"
"","","","","","","","","","","","html-keyboard-response","249","230805","0.0-5.0-2.65","null","<p style=""font-size:60pt"">Correct</p>","null","","","","","","","","","","","","","",""
"","","","","","","","","","","","html-keyboard-response","250","231314","0.0-5.0-0.66","null","<div style=""font-size:60px;"">+</div>","null","fixation","","","","","","","","","","","","",""
"","","","","","","","","","","","psychophysics","251","232655","0.0-5.0-1.66","802","","g","response","key","g","17.006999999999866","500","400","Green","Blue","false","200","true","G","true","602"
"","","","","","","","","","","","html-keyboard-response","252","233158","0.0-5.0-2.66","null","<p style=""font-size:60pt"">Correct</p>","null","","","","","","","","","","","","","",""
"","","","","","","","","","","","html-keyboard-response","253","233670","0.0-5.0-0.67","null","<div style=""font-size:60px;"">+</div>","null","fixation","","","","","","","","","","","","",""
"","","","","","","","","","","","psychophysics","254","234942","0.0-5.0-1.67","766","","b","response","key","b","16.66097826086954","500","400","Blue","Blue","true","200","true","B","true","566"
"","","","","","","","","","","","html-keyboard-response","255","235443","0.0-5.0-2.67","null","<p style=""font-size:60pt"">Correct</p>","null","","","","","","","","","","","","","",""
"","","","","","","","","","","","html-keyboard-response","256","235953","0.0-5.0-0.68","null","<div style=""font-size:60px;"">+</div>","null","fixation","","","","","","","","","","","","",""
"","","","","","","","","","","","psychophysics","257","237067","0.0-5.0-1.68","605","","y","response","key","y","16.660999999999863","500","400","Yellow","Yellow","true","0","false","Y","true","605"
"","","","","","","","","","","","html-keyboard-response","258","237569","0.0-5.0-2.68","null","<p style=""font-size:60pt"">Correct</p>","null","","","","","","","","","","","","","",""
"","","","","","","","","","","","html-keyboard-response","259","238086","0.0-5.0-0.69","null","<div style=""font-size:60px;"">+</div>","null","fixation","","","","","","","","","","","","",""
"","","","","","","","","","","","psychophysics","260","239160","0.0-5.0-1.69","557","","y","response","key","y","16.65793939393938","500","400","Yellow","Yellow","true","0","false","Y","true","557"
"","","","","","","","","","","","html-keyboard-response","261","239661","0.0-5.0-2.69","null","<p style=""font-size:60pt"">Correct</p>","null","","","","","","","","","","","","","",""
"","","","","","","","","","","","html-keyboard-response","262","240171","0.0-5.0-0.70","null","<div style=""font-size:60px;"">+</div>","null","fixation","","","","","","","","","","","","",""
"","","","","","","","","","","","psychophysics","263","241717","0.0-5.0-1.70","1008","","r","response","key","r","16.661080645161658","500","400","Red","Blue","false","200","true","R","true","808"
"","","","","","","","","","","","html-keyboard-response","264","242229","0.0-5.0-2.70","null","<p style=""font-size:60pt"">Correct</p>","null","","","","","","","","","","","","","",""
"","","","","","","","","","","","html-keyboard-response","265","242732","0.0-5.0-0.71","null","<div style=""font-size:60px;"">+</div>","null","fixation","","","","","","","","","","","","",""
"","","","","","","","","","","","psychophysics","266","244260","0.0-5.0-1.71","1005","","b","response","key","b","16.662899999999595","500","400","Blue","Green","false","0","false","B","true","1005"
"","","","","","","","","","","","html-keyboard-response","267","244765","0.0-5.0-2.71","null","<p style=""font-size:60pt"">Correct</p>","null","","","","","","","","","","","","","",""
"","","","","","","","","","","","html-keyboard-response","268","245278","0.0-5.0-0.72","null","<div style=""font-size:60px;"">+</div>","null","fixation","","","","","","","","","","","","",""
"","","","","","","","","","","","psychophysics","269","246373","0.0-5.0-1.72","585","","y","response","key","y","16.66368571428549","500","400","Yellow","Blue","false","200","true","Y","true","385"
"","","","","","","","","","","","html-keyboard-response","270","246879","0.0-5.0-2.72","null","<p style=""font-size:60pt"">Correct</p>","null","","","","","","","","","","","","","",""
"","","","","","","","","","","","html-keyboard-response","271","247391","0.0-5.0-0.73","null","<div style=""font-size:60px;"">+</div>","null","fixation","","","","","","","","","","","","",""
"","","","","","","","","","","","psychophysics","272","248673","0.0-5.0-1.73","777","","y","response","key","y","17.021152173913002","500","400","Yellow","Red","false","200","true","Y","true","577"
"","","","","","","","","","","","html-keyboard-response","273","249184","0.0-5.0-2.73","null","<p style=""font-size:60pt"">Correct</p>","null","","","","","","","","","","","","","",""
"","","","","","","","","","","","html-keyboard-response","274","249695","0.0-5.0-0.74","null","<div style=""font-size:60px;"">+</div>","null","fixation","","","","","","","","","","","","",""
"","","","","","","","","","","","psychophysics","275","250906","0.0-5.0-1.74","674","","g","response","key","g","17.068853658536682","500","400","Green","Green","true","200","true","G","true","474"
"","","","","","","","","","","","html-keyboard-response","276","251415","0.0-5.0-2.74","null","<p style=""font-size:60pt"">Correct</p>","null","","","","","","","","","","","","","",""
"","","","","","","","","","","","html-keyboard-response","277","251923","0.0-5.0-0.75","null","<div style=""font-size:60px;"">+</div>","null","fixation","","","","","","","","","","","","",""
"","","","","","","","","","","","psychophysics","278","253220","0.0-5.0-1.75","778","","g","response","key","g","16.66212765957499","500","400","Green","Red","false","0","false","G","true","778"
"","","","","","","","","","","","html-keyboard-response","279","253731","0.0-5.0-2.75","null","<p style=""font-size:60pt"">Correct</p>","null","","","","","","","","","","","","","",""
"","","","","","","","","","","","html-keyboard-response","280","254239","0.0-5.0-0.76","null","<div style=""font-size:60px;"">+</div>","null","fixation","","","","","","","","","","","","",""
"","","","","","","","","","","","psychophysics","281","255671","0.0-5.0-1.76","925","","r","response","key","r","16.62240740740715","500","400","Blue","Red","false","200","true","B","false","725"
"","","","","","","","","","","","html-keyboard-response","282","256186","0.0-5.0-2.76","null","<p style=""font-size:60pt"">Wrong</p>","null","","","","","","","","","","","","","",""
"","","","","","","","","","","","html-keyboard-response","283","256691","0.0-5.0-0.77","null","<div style=""font-size:60px;"">+</div>","null","fixation","","","","","","","","","","","","",""
"","","","","","","","","","","","psychophysics","284","257848","0.0-5.0-1.77","648","","b","response","key","b","16.66412820512778","500","400","Blue","Blue","true","0","false","B","true","648"
"","","","","","","","","","","","html-keyboard-response","285","258352","0.0-5.0-2.77","null","<p style=""font-size:60pt"">Correct</p>","null","","","","","","","","","","","","","",""
"","","","","","","","","","","","html-keyboard-response","286","258865","0.0-5.0-0.78","null","<div style=""font-size:60px;"">+</div>","null","fixation","","","","","","","","","","","","",""
"","","","","","","","","","","","psychophysics","287","259973","0.0-5.0-1.78","583","","y","response","key","y","16.665111111110793","500","400","Yellow","Blue","false","200","true","Y","true","383"
"","","","","","","","","","","","html-keyboard-response","288","260485","0.0-5.0-2.78","null","<p style=""font-size:60pt"">Correct</p>","null","","","","","","","","","","","","","",""
"","","","","","","","","","","","html-keyboard-response","289","260990","0.0-5.0-0.79","null","<div style=""font-size:60px;"">+</div>","null","fixation","","","","","","","","","","","","",""
"","","","","","","","","","","","psychophysics","290","262181","0.0-5.0-1.79","682","","g","response","key","g","16.663000000000466","500","400","Green","Green","true","200","true","G","true","482"
"","","","","","","","","","","","html-keyboard-response","291","262697","0.0-5.0-2.79","null","<p style=""font-size:60pt"">Correct</p>","null","","","","","","","","","","","","","",""
