"width","height","webaudio","browser","browser_version","mobile","os","fullscreen","vsync_rate","webcam","microphone","trial_type","trial_index","time_elapsed","internal_node_id","rt","stimulus","response","task","response_type","key_press","avg_frame_time","center_x","center_y","color","text","is_congruent","duration","is_soa","correct_response","is_correct","reaction_time"
"1680","970","true","safari","16.3.0","false","Mac OS","true","27.33","true","true","browser-check","0","2290","0.0-0.0","","","","","","","","","","","","","","","","",""
"","","","","","","","","","","","html-keyboard-response","1","4990","0.0-1.0","2698","<p style=""font:bold 20pt Arial"">Welcome to Interactive Stroop Test with Stimulus Onset Asynchrony.</p>
      <p style=""margin:50px"">Press any key to begin.</p>"," ","","","","","","","","","","","","","",""
"","","","","","","","","","","","html-keyboard-response","2","30353","0.0-2.0","25362","
		<div style=""width:800px"">
			<p>You will see text randomly in one of the four colors,  <span style=""color:Blue"">Blue</span> <span style=""color:Red"">Red</span> <span style=""color:Green"">Green</span> <span style=""color:Yellow"">Yellow</span>.</p>
      <p>Your task to to press a key designated to the color stimulus as soon as possible.</p>
      <p>Here is a list of the colors with associated keys.</p>
			<ul style=""list-style-type:none"">
			  <li style=""color:Blue"">Blue - key B</li><li style=""color:Red"">Red - key R</li><li style=""color:Green"">Green - key G</li><li style=""color:Yellow"">Yellow - key Y</li>
			</ul>
			<p>For example, you should press B when seeing a stimulus of color <span style=""color:Blue"">Blue</span>, even if it is presented with another word like <span style=""color:Blue"">Red</span>.</p>
			<p>Here is a tip, you can place your figures on the keys to have a better performance.</p>
			<p>For instance, left middle figure on R; left index figure on B; right index figure on G; and right middle figure on Y</p>
			<p>The experiment will start with a practice for you to become familiar with the task.</p>
			<p>Then a test will start.</p>
			</p></p>	  
			<p>Press any key to begin the practice.</p>
		</div>
      "," ","","","","","","","","","","","","","",""
"","","","","","","","","","","","html-keyboard-response","3","30857","0.0-3.0-0.0","null","<div style=""font-size:60px;"">+</div>","null","fixation","","","","","","","","","","","","",""
"","","","","","","","","","","","psychophysics","4","32912","0.0-3.0-1.0","1542","","b","practise","key","b","33.32608695652174","500","400","Blue","Blue","","200","","B","true",""
"","","","","","","","","","","","html-keyboard-response","5","33416","0.0-3.0-2.0","null","<p style=""font-size:60pt"">Correct</p>","null","","","","","","","","","","","","","",""
"","","","","","","","","","","","html-keyboard-response","6","33918","0.0-3.0-0.1","null","<div style=""font-size:60px;"">+</div>","null","fixation","","","","","","","","","","","","",""
"","","","","","","","","","","","psychophysics","7","36217","0.0-3.0-1.1","1788","","y","practise","key","y","33.339622641509436","500","400","Yellow","Yellow","","200","","Y","true",""
"","","","","","","","","","","","html-keyboard-response","8","36720","0.0-3.0-2.1","null","<p style=""font-size:60pt"">Correct</p>","null","","","","","","","","","","","","","",""
"","","","","","","","","","","","html-keyboard-response","9","37223","0.0-3.0-0.2","null","<div style=""font-size:60px;"">+</div>","null","fixation","","","","","","","","","","","","",""
"","","","","","","","","","","","psychophysics","10","39094","0.0-3.0-1.2","1362","","r","practise","key","r","33.325","500","400","Red","Red","","200","","R","true",""
"","","","","","","","","","","","html-keyboard-response","11","39096","0.0-3.0-2.2","1","<p style=""font-size:60pt"">Correct</p>","t","","","","","","","","","","","","","",""
"","","","","","","","","","","","html-keyboard-response","12","39598","0.0-3.0-0.3","null","<div style=""font-size:60px;"">+</div>","null","fixation","","","","","","","","","","","","",""
"","","","","","","","","","","","psychophysics","13","43676","0.0-3.0-1.3","3568","","r","practise","key","r","33.33018867924528","500","400","Red","Green","","200","","R","true",""
"","","","","","","","","","","","html-keyboard-response","14","44178","0.0-3.0-2.3","null","<p style=""font-size:60pt"">Correct</p>","null","","","","","","","","","","","","","",""
"","","","","","","","","","","","html-keyboard-response","15","44679","0.0-3.0-0.4","null","<div style=""font-size:60px;"">+</div>","null","fixation","","","","","","","","","","","","",""
"","","","","","","","","","","","psychophysics","16","47010","0.0-3.0-1.4","1441","","g","practise","key","g","33.627906976744185","500","400","Green","Yellow","","200","","G","true",""
"","","","","","","","","","","","html-keyboard-response","17","47512","0.0-3.0-2.4","null","<p style=""font-size:60pt"">Correct</p>","null","","","","","","","","","","","","","",""
"","","","","","","","","","","","html-keyboard-response","18","48014","0.0-3.0-0.5","null","<div style=""font-size:60px;"">+</div>","null","fixation","","","","","","","","","","","","",""
"","","","","","","","","","","","psychophysics","19","49896","0.0-3.0-1.5","1373","","y","practise","key","y","37.611111111111114","500","400","Yellow","Blue","","0","","Y","true",""
"","","","","","","","","","","","html-keyboard-response","20","50398","0.0-3.0-2.5","null","<p style=""font-size:60pt"">Correct</p>","null","","","","","","","","","","","","","",""
"","","","","","","","","","","","html-keyboard-response","21","50900","0.0-3.0-0.6","null","<div style=""font-size:60px;"">+</div>","null","fixation","","","","","","","","","","","","",""
"","","","","","","","","","","","psychophysics","22","52408","0.0-3.0-1.6","999","","b","practise","key","b","33.310344827586206","500","400","Blue","Blue","","0","","B","true",""
"","","","","","","","","","","","html-keyboard-response","23","52910","0.0-3.0-2.6","null","<p style=""font-size:60pt"">Correct</p>","null","","","","","","","","","","","","","",""
"","","","","","","","","","","","html-keyboard-response","24","53413","0.0-3.0-0.7","null","<div style=""font-size:60px;"">+</div>","null","fixation","","","","","","","","","","","","",""
"","","","","","","","","","","","psychophysics","25","55114","0.0-3.0-1.7","1190","","b","practise","key","b","33.31428571428572","500","400","Blue","Red","","0","","B","true",""
"","","","","","","","","","","","html-keyboard-response","26","55617","0.0-3.0-2.7","null","<p style=""font-size:60pt"">Correct</p>","null","","","","","","","","","","","","","",""
"","","","","","","","","","","","html-keyboard-response","27","56120","0.0-3.0-0.8","null","<div style=""font-size:60px;"">+</div>","null","fixation","","","","","","","","","","","","",""
"","","","","","","","","","","","psychophysics","28","57666","0.0-3.0-1.8","1037","","r","practise","key","r","33.3","500","400","Red","Red","","0","","R","true",""
"","","","","","","","","","","","html-keyboard-response","29","58167","0.0-3.0-2.8","null","<p style=""font-size:60pt"">Correct</p>","null","","","","","","","","","","","","","",""
"","","","","","","","","","","","html-keyboard-response","30","58669","0.0-3.0-0.9","null","<div style=""font-size:60px;"">+</div>","null","fixation","","","","","","","","","","","","",""
"","","","","","","","","","","","psychophysics","31","60338","0.0-3.0-1.9","1158","","b","practise","key","b","35.40625","500","400","Blue","Red","","200","","B","true",""
"","","","","","","","","","","","html-keyboard-response","32","60842","0.0-3.0-2.9","null","<p style=""font-size:60pt"">Correct</p>","null","","","","","","","","","","","","","",""
"","","","","","","","","","","","html-keyboard-response","33","61344","0.0-3.0-0.10","null","<div style=""font-size:60px;"">+</div>","null","fixation","","","","","","","","","","","","",""
"","","","","","","","","","","","psychophysics","34","62783","0.0-3.0-1.10","929","","y","practise","key","y","33.333333333333336","500","400","Yellow","Blue","","200","","Y","true",""
"","","","","","","","","","","","html-keyboard-response","35","63285","0.0-3.0-2.10","null","<p style=""font-size:60pt"">Correct</p>","null","","","","","","","","","","","","","",""
"","","","","","","","","","","","html-keyboard-response","36","63787","0.0-3.0-0.11","null","<div style=""font-size:60px;"">+</div>","null","fixation","","","","","","","","","","","","",""
"","","","","","","","","","","","psychophysics","37","65266","0.0-3.0-1.11","968","","g","practise","key","g","33.357142857142854","500","400","Green","Green","","0","","G","true",""
"","","","","","","","","","","","html-keyboard-response","38","65769","0.0-3.0-2.11","null","<p style=""font-size:60pt"">Correct</p>","null","","","","","","","","","","","","","",""
"","","","","","","","","","","","html-keyboard-response","39","66271","0.0-3.0-0.12","null","<div style=""font-size:60px;"">+</div>","null","fixation","","","","","","","","","","","","",""
"","","","","","","","","","","","psychophysics","40","67881","0.0-3.0-1.12","1099","","r","practise","key","r","33.34375","500","400","Red","Green","","0","","R","true",""
"","","","","","","","","","","","html-keyboard-response","41","68383","0.0-3.0-2.12","null","<p style=""font-size:60pt"">Correct</p>","null","","","","","","","","","","","","","",""
"","","","","","","","","","","","html-keyboard-response","42","68886","0.0-3.0-0.13","null","<div style=""font-size:60px;"">+</div>","null","fixation","","","","","","","","","","","","",""
"","","","","","","","","","","","psychophysics","43","70747","0.0-3.0-1.13","1351","","g","practise","key","g","33.325","500","400","Green","Green","","200","","G","true",""
"","","","","","","","","","","","html-keyboard-response","44","71249","0.0-3.0-2.13","null","<p style=""font-size:60pt"">Correct</p>","null","","","","","","","","","","","","","",""
"","","","","","","","","","","","html-keyboard-response","45","71752","0.0-3.0-0.14","null","<div style=""font-size:60px;"">+</div>","null","fixation","","","","","","","","","","","","",""
"","","","","","","","","","","","psychophysics","46","73252","0.0-3.0-1.14","991","","y","practise","key","y","33.3448275862069","500","400","Yellow","Yellow","","0","","Y","true",""
"","","","","","","","","","","","html-keyboard-response","47","73754","0.0-3.0-2.14","null","<p style=""font-size:60pt"">Correct</p>","null","","","","","","","","","","","","","",""
"","","","","","","","","","","","html-keyboard-response","48","74256","0.0-3.0-0.15","null","<div style=""font-size:60px;"">+</div>","null","fixation","","","","","","","","","","","","",""
"","","","","","","","","","","","psychophysics","49","76224","0.0-3.0-1.15","1458","","g","practise","key","g","33.325581395348834","500","400","Green","Yellow","","0","","G","true",""
"","","","","","","","","","","","html-keyboard-response","50","76726","0.0-3.0-2.15","null","<p style=""font-size:60pt"">Correct</p>","null","","","","","","","","","","","","","",""
"","","","","","","","","","","","html-keyboard-response","51","81166","0.0-4.0","4439","
  	<div style=""width:800px"">
  		<p>The test will start. Remember to press the key according to the color rather than the word.</p>
  		<p>Press any key to begin.</p>
  	</div>
  	"," ","","","","","","","","","","","","","",""
"","","","","","","","","","","","html-keyboard-response","52","81668","0.0-5.0-0.0","null","<div style=""font-size:60px;"">+</div>","null","fixation","","","","","","","","","","","","",""
"","","","","","","","","","","","psychophysics","53","83499","0.0-5.0-1.0","1320","","g","response","key","g","33.333333333333336","500","400","Green","Red","false","200","true","G","true","1120"
"","","","","","","","","","","","html-keyboard-response","54","84002","0.0-5.0-2.0","null","<p style=""font-size:60pt"">Correct</p>","null","","","","","","","","","","","","","",""
"","","","","","","","","","","","html-keyboard-response","55","84504","0.0-5.0-0.1","null","<div style=""font-size:60px;"">+</div>","null","fixation","","","","","","","","","","","","",""
"","","","","","","","","","","","psychophysics","56","86060","0.0-5.0-1.1","1045","","r","response","key","r","33.32258064516129","500","400","Red","Red","true","0","false","R","true","1045"
"","","","","","","","","","","","html-keyboard-response","57","86563","0.0-5.0-2.1","null","<p style=""font-size:60pt"">Correct</p>","null","","","","","","","","","","","","","",""
"","","","","","","","","","","","html-keyboard-response","58","87065","0.0-5.0-0.2","null","<div style=""font-size:60px;"">+</div>","null","fixation","","","","","","","","","","","","",""
"","","","","","","","","","","","psychophysics","59","88734","0.0-5.0-1.2","1160","","g","response","key","g","33.35294117647059","500","400","Green","Green","true","0","false","G","true","1160"
"","","","","","","","","","","","html-keyboard-response","60","89237","0.0-5.0-2.2","null","<p style=""font-size:60pt"">Correct</p>","null","","","","","","","","","","","","","",""
"","","","","","","","","","","","html-keyboard-response","61","89738","0.0-5.0-0.3","null","<div style=""font-size:60px;"">+</div>","null","fixation","","","","","","","","","","","","",""
"","","","","","","","","","","","psychophysics","62","91304","0.0-5.0-1.3","1053","","r","response","key","r","33.354838709677416","500","400","Red","Blue","false","0","false","R","true","1053"
"","","","","","","","","","","","html-keyboard-response","63","91809","0.0-5.0-2.3","null","<p style=""font-size:60pt"">Correct</p>","null","","","","","","","","","","","","","",""
"","","","","","","","","","","","html-keyboard-response","64","92311","0.0-5.0-0.4","null","<div style=""font-size:60px;"">+</div>","null","fixation","","","","","","","","","","","","",""
"","","","","","","","","","","","psychophysics","65","94180","0.0-5.0-1.4","1359","","b","response","key","b","33.325","500","400","Blue","Yellow","false","0","false","B","true","1359"
"","","","","","","","","","","","html-keyboard-response","66","94682","0.0-5.0-2.4","null","<p style=""font-size:60pt"">Correct</p>","null","","","","","","","","","","","","","",""
"","","","","","","","","","","","html-keyboard-response","67","95184","0.0-5.0-0.5","null","<div style=""font-size:60px;"">+</div>","null","fixation","","","","","","","","","","","","",""
"","","","","","","","","","","","psychophysics","68","96649","0.0-5.0-1.5","954","","r","response","key","r","33.32142857142857","500","400","Red","Red","true","200","true","R","true","754"
"","","","","","","","","","","","html-keyboard-response","69","97152","0.0-5.0-2.5","null","<p style=""font-size:60pt"">Correct</p>","null","","","","","","","","","","","","","",""
"","","","","","","","","","","","html-keyboard-response","70","97654","0.0-5.0-0.6","null","<div style=""font-size:60px;"">+</div>","null","fixation","","","","","","","","","","","","",""
"","","","","","","","","","","","psychophysics","71","99019","0.0-5.0-1.6","855","","b","response","key","b","33.36","500","400","Blue","Blue","true","0","false","B","true","855"
"","","","","","","","","","","","html-keyboard-response","72","99521","0.0-5.0-2.6","null","<p style=""font-size:60pt"">Correct</p>","null","","","","","","","","","","","","","",""
"","","","","","","","","","","","html-keyboard-response","73","100024","0.0-5.0-0.7","null","<div style=""font-size:60px;"">+</div>","null","fixation","","","","","","","","","","","","",""
"","","","","","","","","","","","psychophysics","74","102027","0.0-5.0-1.7","1496","","g","response","key","g","33.34090909090909","500","400","Green","Yellow","false","0","false","G","true","1496"
"","","","","","","","","","","","html-keyboard-response","75","102529","0.0-5.0-2.7","null","<p style=""font-size:60pt"">Correct</p>","null","","","","","","","","","","","","","",""
"","","","","","","","","","","","html-keyboard-response","76","103031","0.0-5.0-0.8","null","<div style=""font-size:60px;"">+</div>","null","fixation","","","","","","","","","","","","",""
"","","","","","","","","","","","psychophysics","77","104626","0.0-5.0-1.8","1084","","r","response","key","r","33.3125","500","400","Red","Green","false","200","true","R","true","884"
"","","","","","","","","","","","html-keyboard-response","78","105129","0.0-5.0-2.8","null","<p style=""font-size:60pt"">Correct</p>","null","","","","","","","","","","","","","",""
"","","","","","","","","","","","html-keyboard-response","79","105631","0.0-5.0-0.9","null","<div style=""font-size:60px;"">+</div>","null","fixation","","","","","","","","","","","","",""
"","","","","","","","","","","","psychophysics","80","107315","0.0-5.0-1.9","1175","","r","response","key","r","33.3235294117647","500","400","Red","Blue","false","200","true","R","true","975"
"","","","","","","","","","","","html-keyboard-response","81","107818","0.0-5.0-2.9","null","<p style=""font-size:60pt"">Correct</p>","null","","","","","","","","","","","","","",""
"","","","","","","","","","","","html-keyboard-response","82","108320","0.0-5.0-0.10","null","<div style=""font-size:60px;"">+</div>","null","fixation","","","","","","","","","","","","",""
"","","","","","","","","","","","psychophysics","83","109732","0.0-5.0-1.10","903","","y","response","key","y","33.34615384615385","500","400","Yellow","Yellow","true","200","true","Y","true","703"
"","","","","","","","","","","","html-keyboard-response","84","110234","0.0-5.0-2.10","null","<p style=""font-size:60pt"">Correct</p>","null","","","","","","","","","","","","","",""
"","","","","","","","","","","","html-keyboard-response","85","110737","0.0-5.0-0.11","null","<div style=""font-size:60px;"">+</div>","null","fixation","","","","","","","","","","","","",""
"","","","","","","","","","","","psychophysics","86","112178","0.0-5.0-1.11","933","","r","response","key","r","33.333333333333336","500","400","Red","Green","false","200","true","R","true","733"
"","","","","","","","","","","","html-keyboard-response","87","112683","0.0-5.0-2.11","null","<p style=""font-size:60pt"">Correct</p>","null","","","","","","","","","","","","","",""
"","","","","","","","","","","","html-keyboard-response","88","113185","0.0-5.0-0.12","null","<div style=""font-size:60px;"">+</div>","null","fixation","","","","","","","","","","","","",""
"","","","","","","","","","","","psychophysics","89","114584","0.0-5.0-1.12","891","","r","response","key","r","33.30769230769231","500","400","Red","Red","true","0","false","R","true","891"
"","","","","","","","","","","","html-keyboard-response","90","115087","0.0-5.0-2.12","null","<p style=""font-size:60pt"">Correct</p>","null","","","","","","","","","","","","","",""
"","","","","","","","","","","","html-keyboard-response","91","115589","0.0-5.0-0.13","null","<div style=""font-size:60px;"">+</div>","null","fixation","","","","","","","","","","","","",""
"","","","","","","","","","","","psychophysics","92","117081","0.0-5.0-1.13","982","","y","response","key","y","33.310344827586206","500","400","Yellow","Red","false","0","false","Y","true","982"
"","","","","","","","","","","","html-keyboard-response","93","117584","0.0-5.0-2.13","null","<p style=""font-size:60pt"">Correct</p>","null","","","","","","","","","","","","","",""
"","","","","","","","","","","","html-keyboard-response","94","118086","0.0-5.0-0.14","null","<div style=""font-size:60px;"">+</div>","null","fixation","","","","","","","","","","","","",""
"","","","","","","","","","","","psychophysics","95","119535","0.0-5.0-1.14","940","","y","response","key","y","33.2962962962963","500","400","Yellow","Yellow","true","200","true","Y","true","740"
"","","","","","","","","","","","html-keyboard-response","96","120194","0.0-5.0-2.14","null","<p style=""font-size:60pt"">Correct</p>","null","","","","","","","","","","","","","",""
"","","","","","","","","","","","html-keyboard-response","97","120698","0.0-5.0-0.15","null","<div style=""font-size:60px;"">+</div>","null","fixation","","","","","","","","","","","","",""
"","","","","","","","","","","","psychophysics","98","122038","0.0-5.0-1.15","830","","y","response","key","y","33.375","500","400","Yellow","Green","false","0","false","Y","true","830"
"","","","","","","","","","","","html-keyboard-response","99","122541","0.0-5.0-2.15","null","<p style=""font-size:60pt"">Correct</p>","null","","","","","","","","","","","","","",""
"","","","","","","","","","","","html-keyboard-response","100","123043","0.0-5.0-0.16","null","<div style=""font-size:60px;"">+</div>","null","fixation","","","","","","","","","","","","",""
"","","","","","","","","","","","psychophysics","101","124448","0.0-5.0-1.16","895","","g","response","key","g","33.30769230769231","500","400","Green","Red","false","0","false","G","true","895"
"","","","","","","","","","","","html-keyboard-response","102","124951","0.0-5.0-2.16","null","<p style=""font-size:60pt"">Correct</p>","null","","","","","","","","","","","","","",""
"","","","","","","","","","","","html-keyboard-response","103","125453","0.0-5.0-0.17","null","<div style=""font-size:60px;"">+</div>","null","fixation","","","","","","","","","","","","",""
"","","","","","","","","","","","psychophysics","104","126942","0.0-5.0-1.17","977","","y","response","key","y","33.310344827586206","500","400","Yellow","Green","false","200","true","Y","true","777"
"","","","","","","","","","","","html-keyboard-response","105","127446","0.0-5.0-2.17","null","<p style=""font-size:60pt"">Correct</p>","null","","","","","","","","","","","","","",""
"","","","","","","","","","","","html-keyboard-response","106","127949","0.0-5.0-0.18","null","<div style=""font-size:60px;"">+</div>","null","fixation","","","","","","","","","","","","",""
"","","","","","","","","","","","psychophysics","107","129278","0.0-5.0-1.18","818","","y","response","key","y","33.291666666666664","500","400","Yellow","Red","false","0","false","Y","true","818"
"","","","","","","","","","","","html-keyboard-response","108","129780","0.0-5.0-2.18","null","<p style=""font-size:60pt"">Correct</p>","null","","","","","","","","","","","","","",""
"","","","","","","","","","","","html-keyboard-response","109","130283","0.0-5.0-0.19","null","<div style=""font-size:60px;"">+</div>","null","fixation","","","","","","","","","","","","",""
"","","","","","","","","","","","psychophysics","110","131935","0.0-5.0-1.19","1143","","g","response","key","g","33.333333333333336","500","400","Green","Green","true","200","true","G","true","943"
"","","","","","","","","","","","html-keyboard-response","111","132438","0.0-5.0-2.19","null","<p style=""font-size:60pt"">Correct</p>","null","","","","","","","","","","","","","",""
"","","","","","","","","","","","html-keyboard-response","112","132940","0.0-5.0-0.20","null","<div style=""font-size:60px;"">+</div>","null","fixation","","","","","","","","","","","","",""
"","","","","","","","","","","","psychophysics","113","134409","0.0-5.0-1.20","960","","r","response","key","r","33.357142857142854","500","400","Red","Red","true","0","false","R","true","960"
"","","","","","","","","","","","html-keyboard-response","114","134912","0.0-5.0-2.20","null","<p style=""font-size:60pt"">Correct</p>","null","","","","","","","","","","","","","",""
"","","","","","","","","","","","html-keyboard-response","115","135414","0.0-5.0-0.21","null","<div style=""font-size:60px;"">+</div>","null","fixation","","","","","","","","","","","","",""
"","","","","","","","","","","","psychophysics","116","137198","0.0-5.0-1.21","1275","","r","response","key","r","33.32432432432432","500","400","Red","Blue","false","0","false","R","true","1275"
"","","","","","","","","","","","html-keyboard-response","117","137699","0.0-5.0-2.21","null","<p style=""font-size:60pt"">Correct</p>","null","","","","","","","","","","","","","",""
"","","","","","","","","","","","html-keyboard-response","118","138201","0.0-5.0-0.22","null","<div style=""font-size:60px;"">+</div>","null","fixation","","","","","","","","","","","","",""
"","","","","","","","","","","","psychophysics","119","139880","0.0-5.0-1.22","1170","","y","response","key","y","33.3235294117647","500","400","Yellow","Red","false","0","false","Y","true","1170"
"","","","","","","","","","","","html-keyboard-response","120","140382","0.0-5.0-2.22","null","<p style=""font-size:60pt"">Correct</p>","null","","","","","","","","","","","","","",""
"","","","","","","","","","","","html-keyboard-response","121","140885","0.0-5.0-0.23","null","<div style=""font-size:60px;"">+</div>","null","fixation","","","","","","","","","","","","",""
"","","","","","","","","","","","psychophysics","122","142160","0.0-5.0-1.23","766","","y","response","key","y","33.36363636363637","500","400","Yellow","Red","false","0","false","Y","true","766"
"","","","","","","","","","","","html-keyboard-response","123","142663","0.0-5.0-2.23","null","<p style=""font-size:60pt"">Correct</p>","null","","","","","","","","","","","","","",""
"","","","","","","","","","","","html-keyboard-response","124","143165","0.0-5.0-0.24","null","<div style=""font-size:60px;"">+</div>","null","fixation","","","","","","","","","","","","",""
"","","","","","","","","","","","psychophysics","125","144642","0.0-5.0-1.24","968","","b","response","key","b","33.32142857142857","500","400","Blue","Blue","true","200","true","B","true","768"
"","","","","","","","","","","","html-keyboard-response","126","145145","0.0-5.0-2.24","null","<p style=""font-size:60pt"">Correct</p>","null","","","","","","","","","","","","","",""
"","","","","","","","","","","","html-keyboard-response","127","145647","0.0-5.0-0.25","null","<div style=""font-size:60px;"">+</div>","null","fixation","","","","","","","","","","","","",""
"","","","","","","","","","","","psychophysics","128","147160","0.0-5.0-1.25","1004","","g","response","key","g","38.96","500","400","Green","Red","false","0","false","G","true","1004"
"","","","","","","","","","","","html-keyboard-response","129","147665","0.0-5.0-2.25","null","<p style=""font-size:60pt"">Correct</p>","null","","","","","","","","","","","","","",""
"","","","","","","","","","","","html-keyboard-response","130","148169","0.0-5.0-0.26","null","<div style=""font-size:60px;"">+</div>","null","fixation","","","","","","","","","","","","",""
"","","","","","","","","","","","psychophysics","131","149909","0.0-5.0-1.26","1230","","b","response","key","b","34.714285714285715","500","400","Blue","Red","false","200","true","B","true","1030"
"","","","","","","","","","","","html-keyboard-response","132","150413","0.0-5.0-2.26","null","<p style=""font-size:60pt"">Correct</p>","null","","","","","","","","","","","","","",""
"","","","","","","","","","","","html-keyboard-response","133","150915","0.0-5.0-0.27","null","<div style=""font-size:60px;"">+</div>","null","fixation","","","","","","","","","","","","",""
"","","","","","","","","","","","psychophysics","134","152522","0.0-5.0-1.27","1097","","r","response","key","r","33.34375","500","400","Red","Green","false","200","true","R","true","897"
"","","","","","","","","","","","html-keyboard-response","135","153024","0.0-5.0-2.27","null","<p style=""font-size:60pt"">Correct</p>","null","","","","","","","","","","","","","",""
"","","","","","","","","","","","html-keyboard-response","136","153526","0.0-5.0-0.28","null","<div style=""font-size:60px;"">+</div>","null","fixation","","","","","","","","","","","","",""
"","","","","","","","","","","","psychophysics","137","155001","0.0-5.0-1.28","965","","r","response","key","r","33.32142857142857","500","400","Red","Yellow","false","200","true","R","true","765"
"","","","","","","","","","","","html-keyboard-response","138","155503","0.0-5.0-2.28","null","<p style=""font-size:60pt"">Correct</p>","null","","","","","","","","","","","","","",""
"","","","","","","","","","","","html-keyboard-response","139","156006","0.0-5.0-0.29","null","<div style=""font-size:60px;"">+</div>","null","fixation","","","","","","","","","","","","",""
"","","","","","","","","","","","psychophysics","140","157376","0.0-5.0-1.29","860","","y","response","key","y","33.32","500","400","Yellow","Yellow","true","0","false","Y","true","860"
"","","","","","","","","","","","html-keyboard-response","141","157878","0.0-5.0-2.29","null","<p style=""font-size:60pt"">Correct</p>","null","","","","","","","","","","","","","",""
"","","","","","","","","","","","html-keyboard-response","142","158381","0.0-5.0-0.30","null","<div style=""font-size:60px;"">+</div>","null","fixation","","","","","","","","","","","","",""
"","","","","","","","","","","","psychophysics","143","160295","0.0-5.0-1.30","1404","","g","response","key","g","33.31707317073171","500","400","Green","Green","true","200","true","G","true","1204"
"","","","","","","","","","","","html-keyboard-response","144","160797","0.0-5.0-2.30","null","<p style=""font-size:60pt"">Correct</p>","null","","","","","","","","","","","","","",""
"","","","","","","","","","","","html-keyboard-response","145","161300","0.0-5.0-0.31","null","<div style=""font-size:60px;"">+</div>","null","fixation","","","","","","","","","","","","",""
"","","","","","","","","","","","psychophysics","146","162795","0.0-5.0-1.31","986","","g","response","key","g","33.310344827586206","500","400","Green","Green","true","200","true","G","true","786"
"","","","","","","","","","","","html-keyboard-response","147","163297","0.0-5.0-2.31","null","<p style=""font-size:60pt"">Correct</p>","null","","","","","","","","","","","","","",""
"","","","","","","","","","","","html-keyboard-response","148","163799","0.0-5.0-0.32","null","<div style=""font-size:60px;"">+</div>","null","fixation","","","","","","","","","","","","",""
"","","","","","","","","","","","psychophysics","149","165329","0.0-5.0-1.32","1021","","r","response","key","r","33.3","500","400","Red","Red","true","200","true","R","true","821"
"","","","","","","","","","","","html-keyboard-response","150","165831","0.0-5.0-2.32","null","<p style=""font-size:60pt"">Correct</p>","null","","","","","","","","","","","","","",""
"","","","","","","","","","","","html-keyboard-response","151","166334","0.0-5.0-0.33","null","<div style=""font-size:60px;"">+</div>","null","fixation","","","","","","","","","","","","",""
"","","","","","","","","","","","psychophysics","152","167994","0.0-5.0-1.33","1146","","r","response","key","r","33.294117647058826","500","400","Red","Green","false","200","true","R","true","946"
"","","","","","","","","","","","html-keyboard-response","153","168497","0.0-5.0-2.33","null","<p style=""font-size:60pt"">Correct</p>","null","","","","","","","","","","","","","",""
"","","","","","","","","","","","html-keyboard-response","154","169000","0.0-5.0-0.34","null","<div style=""font-size:60px;"">+</div>","null","fixation","","","","","","","","","","","","",""
"","","","","","","","","","","","psychophysics","155","171050","0.0-5.0-1.34","1540","","g","response","key","g","33.333333333333336","500","400","Green","Green","true","0","false","G","true","1540"
"","","","","","","","","","","","html-keyboard-response","156","171552","0.0-5.0-2.34","null","<p style=""font-size:60pt"">Correct</p>","null","","","","","","","","","","","","","",""
"","","","","","","","","","","","html-keyboard-response","157","172054","0.0-5.0-0.35","null","<div style=""font-size:60px;"">+</div>","null","fixation","","","","","","","","","","","","",""
"","","","","","","","","","","","psychophysics","158","173560","0.0-5.0-1.35","998","","g","response","key","g","33.3448275862069","500","400","Green","Blue","false","0","false","G","true","998"
"","","","","","","","","","","","html-keyboard-response","159","174062","0.0-5.0-2.35","null","<p style=""font-size:60pt"">Correct</p>","null","","","","","","","","","","","","","",""
"","","","","","","","","","","","html-keyboard-response","160","174564","0.0-5.0-0.36","null","<div style=""font-size:60px;"">+</div>","null","fixation","","","","","","","","","","","","",""
"","","","","","","","","","","","psychophysics","161","176168","0.0-5.0-1.36","1095","","y","response","key","y","33.34375","500","400","Yellow","Blue","false","200","true","Y","true","895"
"","","","","","","","","","","","html-keyboard-response","162","176671","0.0-5.0-2.36","null","<p style=""font-size:60pt"">Correct</p>","null","","","","","","","","","","","","","",""
"","","","","","","","","","","","html-keyboard-response","163","177173","0.0-5.0-0.37","null","<div style=""font-size:60px;"">+</div>","null","fixation","","","","","","","","","","","","",""
"","","","","","","","","","","","psychophysics","164","179065","0.0-5.0-1.37","1384","","r","response","key","r","33.36585365853659","500","400","Red","Blue","false","200","true","R","true","1184"
"","","","","","","","","","","","html-keyboard-response","165","179568","0.0-5.0-2.37","null","<p style=""font-size:60pt"">Correct</p>","null","","","","","","","","","","","","","",""
"","","","","","","","","","","","html-keyboard-response","166","180195","0.0-5.0-0.38","null","<div style=""font-size:60px;"">+</div>","null","fixation","","","","","","","","","","","","",""
"","","","","","","","","","","","psychophysics","167","181685","0.0-5.0-1.38","978","","r","response","key","r","33.357142857142854","500","400","Red","Red","true","200","true","R","true","778"
"","","","","","","","","","","","html-keyboard-response","168","182189","0.0-5.0-2.38","null","<p style=""font-size:60pt"">Correct</p>","null","","","","","","","","","","","","","",""
"","","","","","","","","","","","html-keyboard-response","169","182692","0.0-5.0-0.39","null","<div style=""font-size:60px;"">+</div>","null","fixation","","","","","","","","","","","","",""
"","","","","","","","","","","","psychophysics","170","184057","0.0-5.0-1.39","854","","y","response","key","y","33.32","500","400","Yellow","Yellow","true","0","false","Y","true","854"
"","","","","","","","","","","","html-keyboard-response","171","184561","0.0-5.0-2.39","null","<p style=""font-size:60pt"">Correct</p>","null","","","","","","","","","","","","","",""
"","","","","","","","","","","","html-keyboard-response","172","185064","0.0-5.0-0.40","null","<div style=""font-size:60px;"">+</div>","null","fixation","","","","","","","","","","","","",""
"","","","","","","","","","","","psychophysics","173","186632","0.0-5.0-1.40","1058","","r","response","key","r","33.32258064516129","500","400","Red","Red","true","200","true","R","true","858"
"","","","","","","","","","","","html-keyboard-response","174","187135","0.0-5.0-2.40","null","<p style=""font-size:60pt"">Correct</p>","null","","","","","","","","","","","","","",""
"","","","","","","","","","","","html-keyboard-response","175","187637","0.0-5.0-0.41","null","<div style=""font-size:60px;"">+</div>","null","fixation","","","","","","","","","","","","",""
"","","","","","","","","","","","psychophysics","176","189198","0.0-5.0-1.41","1052","","r","response","key","r","33.354838709677416","500","400","Red","Red","true","200","true","R","true","852"
"","","","","","","","","","","","html-keyboard-response","177","189701","0.0-5.0-2.41","null","<p style=""font-size:60pt"">Correct</p>","null","","","","","","","","","","","","","",""
"","","","","","","","","","","","html-keyboard-response","178","190203","0.0-5.0-0.42","null","<div style=""font-size:60px;"">+</div>","null","fixation","","","","","","","","","","","","",""
"","","","","","","","","","","","psychophysics","179","191864","0.0-5.0-1.42","1153","","b","response","key","b","33.35294117647059","500","400","Blue","Blue","true","200","true","B","true","953"
"","","","","","","","","","","","html-keyboard-response","180","192366","0.0-5.0-2.42","null","<p style=""font-size:60pt"">Correct</p>","null","","","","","","","","","","","","","",""
"","","","","","","","","","","","html-keyboard-response","181","192869","0.0-5.0-0.43","null","<div style=""font-size:60px;"">+</div>","null","fixation","","","","","","","","","","","","",""
"","","","","","","","","","","","psychophysics","182","194458","0.0-5.0-1.43","1081","","r","response","key","r","33.3125","500","400","Red","Red","true","0","false","R","true","1081"
"","","","","","","","","","","","html-keyboard-response","183","194960","0.0-5.0-2.43","null","<p style=""font-size:60pt"">Correct</p>","null","","","","","","","","","","","","","",""
"","","","","","","","","","","","html-keyboard-response","184","195463","0.0-5.0-0.44","null","<div style=""font-size:60px;"">+</div>","null","fixation","","","","","","","","","","","","",""
"","","","","","","","","","","","psychophysics","185","197180","0.0-5.0-1.44","1208","","b","response","key","b","33.285714285714285","500","400","Blue","Red","false","0","false","B","true","1208"
"","","","","","","","","","","","html-keyboard-response","186","197683","0.0-5.0-2.44","null","<p style=""font-size:60pt"">Correct</p>","null","","","","","","","","","","","","","",""
"","","","","","","","","","","","html-keyboard-response","187","198185","0.0-5.0-0.45","null","<div style=""font-size:60px;"">+</div>","null","fixation","","","","","","","","","","","","",""
"","","","","","","","","","","","psychophysics","188","199773","0.0-5.0-1.45","1078","","b","response","key","b","33.3125","500","400","Blue","Blue","true","0","false","B","true","1078"
"","","","","","","","","","","","html-keyboard-response","189","200277","0.0-5.0-2.45","null","<p style=""font-size:60pt"">Correct</p>","null","","","","","","","","","","","","","",""
"","","","","","","","","","","","html-keyboard-response","190","200780","0.0-5.0-0.46","null","<div style=""font-size:60px;"">+</div>","null","fixation","","","","","","","","","","","","",""
"","","","","","","","","","","","psychophysics","191","202374","0.0-5.0-1.46","1080","","r","response","key","r","33.3125","500","400","Red","Red","true","0","false","R","true","1080"
"","","","","","","","","","","","html-keyboard-response","192","202876","0.0-5.0-2.46","null","<p style=""font-size:60pt"">Correct</p>","null","","","","","","","","","","","","","",""
"","","","","","","","","","","","html-keyboard-response","193","203379","0.0-5.0-0.47","null","<div style=""font-size:60px;"">+</div>","null","fixation","","","","","","","","","","","","",""
"","","","","","","","","","","","psychophysics","194","204951","0.0-5.0-1.47","1061","","y","response","key","y","33.32258064516129","500","400","Yellow","Blue","false","200","true","Y","true","861"
"","","","","","","","","","","","html-keyboard-response","195","205453","0.0-5.0-2.47","null","<p style=""font-size:60pt"">Correct</p>","null","","","","","","","","","","","","","",""
"","","","","","","","","","","","html-keyboard-response","196","205955","0.0-5.0-0.48","null","<div style=""font-size:60px;"">+</div>","null","fixation","","","","","","","","","","","","",""
"","","","","","","","","","","","psychophysics","197","207641","0.0-5.0-1.48","1175","","b","response","key","b","33.34285714285714","500","400","Blue","Blue","true","200","true","B","true","975"
"","","","","","","","","","","","html-keyboard-response","198","208144","0.0-5.0-2.48","null","<p style=""font-size:60pt"">Correct</p>","null","","","","","","","","","","","","","",""
"","","","","","","","","","","","html-keyboard-response","199","208647","0.0-5.0-0.49","null","<div style=""font-size:60px;"">+</div>","null","fixation","","","","","","","","","","","","",""
"","","","","","","","","","","","psychophysics","200","210157","0.0-5.0-1.49","998","","r","response","key","r","35.107142857142854","500","400","Red","Red","true","200","true","R","true","798"
"","","","","","","","","","","","html-keyboard-response","201","210661","0.0-5.0-2.49","null","<p style=""font-size:60pt"">Correct</p>","null","","","","","","","","","","","","","",""
"","","","","","","","","","","","html-keyboard-response","202","211163","0.0-5.0-0.50","null","<div style=""font-size:60px;"">+</div>","null","fixation","","","","","","","","","","","","",""
"","","","","","","","","","","","psychophysics","203","212959","0.0-5.0-1.50","1286","","g","response","key","g","33.31578947368421","500","400","Green","Blue","false","0","false","G","true","1286"
"","","","","","","","","","","","html-keyboard-response","204","213462","0.0-5.0-2.50","null","<p style=""font-size:60pt"">Correct</p>","null","","","","","","","","","","","","","",""
"","","","","","","","","","","","html-keyboard-response","205","213964","0.0-5.0-0.51","null","<div style=""font-size:60px;"">+</div>","null","fixation","","","","","","","","","","","","",""
"","","","","","","","","","","","psychophysics","206","215440","0.0-5.0-1.51","966","","y","response","key","y","33.285714285714285","500","400","Yellow","Yellow","true","0","false","Y","true","966"
"","","","","","","","","","","","html-keyboard-response","207","215941","0.0-5.0-2.51","null","<p style=""font-size:60pt"">Correct</p>","null","","","","","","","","","","","","","",""
"","","","","","","","","","","","html-keyboard-response","208","216443","0.0-5.0-0.52","null","<div style=""font-size:60px;"">+</div>","null","fixation","","","","","","","","","","","","",""
"","","","","","","","","","","","psychophysics","209","218091","0.0-5.0-1.52","1138","","g","response","key","g","33.333333333333336","500","400","Green","Green","true","0","false","G","true","1138"
"","","","","","","","","","","","html-keyboard-response","210","218594","0.0-5.0-2.52","null","<p style=""font-size:60pt"">Correct</p>","null","","","","","","","","","","","","","",""
"","","","","","","","","","","","html-keyboard-response","211","219096","0.0-5.0-0.53","null","<div style=""font-size:60px;"">+</div>","null","fixation","","","","","","","","","","","","",""
"","","","","","","","","","","","psychophysics","212","220464","0.0-5.0-1.53","858","","g","response","key","g","33.28","500","400","Green","Green","true","0","false","G","true","858"
"","","","","","","","","","","","html-keyboard-response","213","220967","0.0-5.0-2.53","null","<p style=""font-size:60pt"">Correct</p>","null","","","","","","","","","","","","","",""
"","","","","","","","","","","","html-keyboard-response","214","221469","0.0-5.0-0.54","null","<div style=""font-size:60px;"">+</div>","null","fixation","","","","","","","","","","","","",""
"","","","","","","","","","","","psychophysics","215","222879","0.0-5.0-1.54","902","","b","response","key","b","33.34615384615385","500","400","Blue","Blue","true","0","false","B","true","902"
"","","","","","","","","","","","html-keyboard-response","216","223381","0.0-5.0-2.54","null","<p style=""font-size:60pt"">Correct</p>","null","","","","","","","","","","","","","",""
"","","","","","","","","","","","html-keyboard-response","217","223883","0.0-5.0-0.55","null","<div style=""font-size:60px;"">+</div>","null","fixation","","","","","","","","","","","","",""
"","","","","","","","","","","","psychophysics","218","225193","0.0-5.0-1.55","800","","y","response","key","y","43.44444444444444","500","400","Yellow","Green","false","200","true","Y","true","600"
"","","","","","","","","","","","html-keyboard-response","219","225695","0.0-5.0-2.55","null","<p style=""font-size:60pt"">Correct</p>","null","","","","","","","","","","","","","",""
"","","","","","","","","","","","html-keyboard-response","220","226198","0.0-5.0-0.56","null","<div style=""font-size:60px;"">+</div>","null","fixation","","","","","","","","","","","","",""
"","","","","","","","","","","","psychophysics","221","227506","0.0-5.0-1.56","798","","b","response","key","b","33.26086956521739","500","400","Blue","Green","false","200","true","B","true","598"
"","","","","","","","","","","","html-keyboard-response","222","228009","0.0-5.0-2.56","null","<p style=""font-size:60pt"">Correct</p>","null","","","","","","","","","","","","","",""
"","","","","","","","","","","","html-keyboard-response","223","228511","0.0-5.0-0.57","null","<div style=""font-size:60px;"">+</div>","null","fixation","","","","","","","","","","","","",""
"","","","","","","","","","","","psychophysics","224","229694","0.0-5.0-1.57","674","","b","response","key","b","33.31578947368421","500","400","Blue","Blue","true","0","false","B","true","674"
"","","","","","","","","","","","html-keyboard-response","225","230197","0.0-5.0-2.57","null","<p style=""font-size:60pt"">Correct</p>","null","","","","","","","","","","","","","",""
"","","","","","","","","","","","html-keyboard-response","226","230699","0.0-5.0-0.58","null","<div style=""font-size:60px;"">+</div>","null","fixation","","","","","","","","","","","","",""
"","","","","","","","","","","","psychophysics","227","232174","0.0-5.0-1.58","965","","r","response","key","r","33.285714285714285","500","400","Red","Green","false","200","true","R","true","765"
"","","","","","","","","","","","html-keyboard-response","228","232676","0.0-5.0-2.58","null","<p style=""font-size:60pt"">Correct</p>","null","","","","","","","","","","","","","",""
"","","","","","","","","","","","html-keyboard-response","229","233178","0.0-5.0-0.59","null","<div style=""font-size:60px;"">+</div>","null","fixation","","","","","","","","","","","","",""
"","","","","","","","","","","","psychophysics","230","234678","0.0-5.0-1.59","995","","y","response","key","y","33.37931034482759","500","400","Yellow","Green","false","0","false","Y","true","995"
"","","","","","","","","","","","html-keyboard-response","231","235179","0.0-5.0-2.59","null","<p style=""font-size:60pt"">Correct</p>","null","","","","","","","","","","","","","",""
"","","","","","","","","","","","html-keyboard-response","232","235682","0.0-5.0-0.60","null","<div style=""font-size:60px;"">+</div>","null","fixation","","","","","","","","","","","","",""
"","","","","","","","","","","","psychophysics","233","236982","0.0-5.0-1.60","792","","y","response","key","y","33.30434782608695","500","400","Yellow","Blue","false","200","true","Y","true","592"
"","","","","","","","","","","","html-keyboard-response","234","237485","0.0-5.0-2.60","null","<p style=""font-size:60pt"">Correct</p>","null","","","","","","","","","","","","","",""
"","","","","","","","","","","","html-keyboard-response","235","237988","0.0-5.0-0.61","null","<div style=""font-size:60px;"">+</div>","null","fixation","","","","","","","","","","","","",""
"","","","","","","","","","","","psychophysics","236","239446","0.0-5.0-1.61","949","","b","response","key","b","33.357142857142854","500","400","Blue","Blue","true","200","true","B","true","749"
"","","","","","","","","","","","html-keyboard-response","237","240198","0.0-5.0-2.61","null","<p style=""font-size:60pt"">Correct</p>","null","","","","","","","","","","","","","",""
"","","","","","","","","","","","html-keyboard-response","238","240702","0.0-5.0-0.62","null","<div style=""font-size:60px;"">+</div>","null","fixation","","","","","","","","","","","","",""
"","","","","","","","","","","","psychophysics","239","242334","0.0-5.0-1.62","1118","","r","response","key","r","33.3125","500","400","Red","Red","true","200","true","R","true","918"
"","","","","","","","","","","","html-keyboard-response","240","242837","0.0-5.0-2.62","null","<p style=""font-size:60pt"">Correct</p>","null","","","","","","","","","","","","","",""
"","","","","","","","","","","","html-keyboard-response","241","243340","0.0-5.0-0.63","null","<div style=""font-size:60px;"">+</div>","null","fixation","","","","","","","","","","","","",""
"","","","","","","","","","","","psychophysics","242","244797","0.0-5.0-1.63","947","","r","response","key","r","33.2962962962963","500","400","Red","Red","true","0","false","R","true","947"
"","","","","","","","","","","","html-keyboard-response","243","245299","0.0-5.0-2.63","null","<p style=""font-size:60pt"">Correct</p>","null","","","","","","","","","","","","","",""
"","","","","","","","","","","","html-keyboard-response","244","245802","0.0-5.0-0.64","null","<div style=""font-size:60px;"">+</div>","null","fixation","","","","","","","","","","","","",""
"","","","","","","","","","","","psychophysics","245","247300","0.0-5.0-1.64","987","","y","response","key","y","33.310344827586206","500","400","Yellow","Red","false","0","false","Y","true","987"
"","","","","","","","","","","","html-keyboard-response","246","247802","0.0-5.0-2.64","null","<p style=""font-size:60pt"">Correct</p>","null","","","","","","","","","","","","","",""
"","","","","","","","","","","","html-keyboard-response","247","248305","0.0-5.0-0.65","null","<div style=""font-size:60px;"">+</div>","null","fixation","","","","","","","","","","","","",""
"","","","","","","","","","","","psychophysics","248","249664","0.0-5.0-1.65","849","","b","response","key","b","33.32","500","400","Blue","Blue","true","200","true","B","true","649"
"","","","","","","","","","","","html-keyboard-response","249","250166","0.0-5.0-2.65","null","<p style=""font-size:60pt"">Correct</p>","null","","","","","","","","","","","","","",""
"","","","","","","","","","","","html-keyboard-response","250","250669","0.0-5.0-0.66","null","<div style=""font-size:60px;"">+</div>","null","fixation","","","","","","","","","","","","",""
"","","","","","","","","","","","psychophysics","251","252137","0.0-5.0-1.66","959","","r","response","key","r","33.32142857142857","500","400","Red","Blue","false","200","true","R","true","759"
"","","","","","","","","","","","html-keyboard-response","252","252639","0.0-5.0-2.66","null","<p style=""font-size:60pt"">Correct</p>","null","","","","","","","","","","","","","",""
"","","","","","","","","","","","html-keyboard-response","253","253141","0.0-5.0-0.67","null","<div style=""font-size:60px;"">+</div>","null","fixation","","","","","","","","","","","","",""
"","","","","","","","","","","","psychophysics","254","254582","0.0-5.0-1.67","931","","y","response","key","y","37.5","500","400","Yellow","Yellow","true","200","true","Y","true","731"
"","","","","","","","","","","","html-keyboard-response","255","255085","0.0-5.0-2.67","null","<p style=""font-size:60pt"">Correct</p>","null","","","","","","","","","","","","","",""
"","","","","","","","","","","","html-keyboard-response","256","255586","0.0-5.0-0.68","null","<div style=""font-size:60px;"">+</div>","null","fixation","","","","","","","","","","","","",""
"","","","","","","","","","","","psychophysics","257","257255","0.0-5.0-1.68","1159","","r","response","key","r","33.3235294117647","500","400","Red","Blue","false","0","false","R","true","1159"
"","","","","","","","","","","","html-keyboard-response","258","257757","0.0-5.0-2.68","null","<p style=""font-size:60pt"">Correct</p>","null","","","","","","","","","","","","","",""
"","","","","","","","","","","","html-keyboard-response","259","258259","0.0-5.0-0.69","null","<div style=""font-size:60px;"">+</div>","null","fixation","","","","","","","","","","","","",""
"","","","","","","","","","","","psychophysics","260","260062","0.0-5.0-1.69","1296","","y","response","key","y","33.31578947368421","500","400","Yellow","Red","false","200","true","Y","true","1096"
"","","","","","","","","","","","html-keyboard-response","261","260565","0.0-5.0-2.69","null","<p style=""font-size:60pt"">Correct</p>","null","","","","","","","","","","","","","",""
"","","","","","","","","","","","html-keyboard-response","262","261067","0.0-5.0-0.70","null","<div style=""font-size:60px;"">+</div>","null","fixation","","","","","","","","","","","","",""
"","","","","","","","","","","","psychophysics","263","262646","0.0-5.0-1.70","1069","","g","response","key","g","33.29032258064516","500","400","Green","Green","true","200","true","G","true","869"
"","","","","","","","","","","","html-keyboard-response","264","263148","0.0-5.0-2.70","null","<p style=""font-size:60pt"">Correct</p>","null","","","","","","","","","","","","","",""
"","","","","","","","","","","","html-keyboard-response","265","263651","0.0-5.0-0.71","null","<div style=""font-size:60px;"">+</div>","null","fixation","","","","","","","","","","","","",""
"","","","","","","","","","","","psychophysics","266","265098","0.0-5.0-1.71","941","","y","response","key","y","33.370370370370374","500","400","Yellow","Yellow","true","0","false","Y","true","941"
"","","","","","","","","","","","html-keyboard-response","267","265600","0.0-5.0-2.71","null","<p style=""font-size:60pt"">Correct</p>","null","","","","","","","","","","","","","",""
"","","","","","","","","","","","html-keyboard-response","268","266102","0.0-5.0-0.72","null","<div style=""font-size:60px;"">+</div>","null","fixation","","","","","","","","","","","","",""
"","","","","","","","","","","","psychophysics","269","267696","0.0-5.0-1.72","1085","","b","response","key","b","33.375","500","400","Blue","Blue","true","0","false","B","true","1085"
"","","","","","","","","","","","html-keyboard-response","270","268199","0.0-5.0-2.72","null","<p style=""font-size:60pt"">Correct</p>","null","","","","","","","","","","","","","",""
"","","","","","","","","","","","html-keyboard-response","271","268701","0.0-5.0-0.73","null","<div style=""font-size:60px;"">+</div>","null","fixation","","","","","","","","","","","","",""
"","","","","","","","","","","","psychophysics","272","271096","0.0-5.0-1.73","1886","","b","response","key","b","33.32142857142857","500","400","Blue","Green","false","0","false","B","true","1886"
"","","","","","","","","","","","html-keyboard-response","273","271600","0.0-5.0-2.73","null","<p style=""font-size:60pt"">Correct</p>","null","","","","","","","","","","","","","",""
"","","","","","","","","","","","html-keyboard-response","274","272103","0.0-5.0-0.74","null","<div style=""font-size:60px;"">+</div>","null","fixation","","","","","","","","","","","","",""
"","","","","","","","","","","","psychophysics","275","273959","0.0-5.0-1.74","1342","","b","response","key","b","33.30769230769231","500","400","Blue","Red","false","200","true","B","true","1142"
"","","","","","","","","","","","html-keyboard-response","276","274461","0.0-5.0-2.74","null","<p style=""font-size:60pt"">Correct</p>","null","","","","","","","","","","","","","",""
"","","","","","","","","","","","html-keyboard-response","277","274964","0.0-5.0-0.75","null","<div style=""font-size:60px;"">+</div>","null","fixation","","","","","","","","","","","","",""
"","","","","","","","","","","","psychophysics","278","276786","0.0-5.0-1.75","1312","","g","response","key","g","33.30769230769231","500","400","Green","Red","false","0","false","G","true","1312"
"","","","","","","","","","","","html-keyboard-response","279","277290","0.0-5.0-2.75","null","<p style=""font-size:60pt"">Correct</p>","null","","","","","","","","","","","","","",""
"","","","","","","","","","","","html-keyboard-response","280","277793","0.0-5.0-0.76","null","<div style=""font-size:60px;"">+</div>","null","fixation","","","","","","","","","","","","",""
"","","","","","","","","","","","psychophysics","281","279460","0.0-5.0-1.76","1040","","y","response","key","y","33.36666666666667","500","400","Yellow","Yellow","true","0","false","Y","true","1040"
"","","","","","","","","","","","html-keyboard-response","282","279963","0.0-5.0-2.76","null","<p style=""font-size:60pt"">Correct</p>","null","","","","","","","","","","","","","",""
"","","","","","","","","","","","html-keyboard-response","283","280465","0.0-5.0-0.77","null","<div style=""font-size:60px;"">+</div>","null","fixation","","","","","","","","","","","","",""
"","","","","","","","","","","","psychophysics","284","282039","0.0-5.0-1.77","1063","","y","response","key","y","33.32258064516129","500","400","Yellow","Yellow","true","200","true","Y","true","863"
"","","","","","","","","","","","html-keyboard-response","285","282541","0.0-5.0-2.77","null","<p style=""font-size:60pt"">Correct</p>","null","","","","","","","","","","","","","",""
"","","","","","","","","","","","html-keyboard-response","286","283043","0.0-5.0-0.78","null","<div style=""font-size:60px;"">+</div>","null","fixation","","","","","","","","","","","","",""
"","","","","","","","","","","","psychophysics","287","284814","0.0-5.0-1.78","1262","","b","response","key","b","37.36363636363637","500","400","Blue","Yellow","false","0","false","B","true","1262"
"","","","","","","","","","","","html-keyboard-response","288","285317","0.0-5.0-2.78","null","<p style=""font-size:60pt"">Correct</p>","null","","","","","","","","","","","","","",""
"","","","","","","","","","","","html-keyboard-response","289","285819","0.0-5.0-0.79","null","<div style=""font-size:60px;"">+</div>","null","fixation","","","","","","","","","","","","",""
"","","","","","","","","","","","psychophysics","290","287572","0.0-5.0-1.79","1243","","b","response","key","b","33.32432432432432","500","400","Blue","Yellow","false","200","true","B","true","1043"
"","","","","","","","","","","","html-keyboard-response","291","288077","0.0-5.0-2.79","null","<p style=""font-size:60pt"">Correct</p>","null","","","","","","","","","","","","","",""
